Acc_X_lf,Acc_Y_lf,Acc_Z_lf,Acc_X_rf,Acc_Y_rf,Acc_Z_rf
0.0,0.0,0.0,0.0,0.0,0.0
9.75883007,0.92746079,-0.714977622,9.699114799,-0.513605058,-0.380894572
9.756316185,0.915218115,-0.730103612,9.798958778,-0.638376892,-0.403751522
9.770414352,0.887852788,-0.730982065,9.759178162,-0.524446964,-0.082214013
9.760866165,0.828819275,-0.739239097,9.763986588,-0.302779287,0.094321616
9.758182526,0.843070745,-0.78226006,9.733142853,-0.260685384,0.249055326
9.761541367,0.780994713,-0.767222881,9.637216568,-0.104590148,0.366439074
9.791527748,0.798359454,-0.829241395,9.729104996,-0.007140831,0.061425723
9.877023697,0.80715394,-0.790937543,9.825670242,-0.187478051,-0.413691938
9.922279358,0.827572346,-0.764150858,9.967790604,-0.422155052,-0.492107064
9.902610779,0.865182996,-0.813443005,9.986686707,-0.529202819,-0.37722078
9.826475143,0.87950772,-0.850678802,9.924901962,-0.521043062,-0.095244914
9.791819572,0.928609967,-0.932057202,9.687651634,-0.555075049,0.357411474
9.759714127,0.931549072,-0.965545774,9.546222687,-0.44597435,0.449557304
9.753526688,0.895956099,-1.004520416,9.556106567,-0.236020088,0.450658202
9.754667282,0.911923409,-0.990810633,9.680690765,-0.398100406,0.580932856
9.688182831,0.977894604,-0.931700587,9.752919197,-0.485109091,0.685551703
9.642771721,1.082698822,-0.921079397,9.72621727,-0.431840509,0.697384
9.645784378,1.150813818,-0.874882877,9.72905159,-0.443789989,0.561997116
9.679148674,1.201131701,-0.915275812,9.770938873,-0.469498307,0.597594976
9.690302849,1.130699039,-0.911043465,9.720843315,-0.398713112,0.557416022
9.6923666,1.043862104,-0.922743857,9.652568817,-0.287503123,0.396055013
9.706381798,0.928595304,-0.875649154,9.691724777,-0.316953391,0.033313487
9.702044487,0.845986307,-0.815350711,9.787092209,-0.529928625,-0.305141181
9.653214455,0.909212053,-0.822697043,9.847556114,-0.701226115,-0.454580575
9.661030769,0.950826287,-0.840527534,9.828885078,-0.603992641,-0.491284788
9.690950394,0.980781972,-0.849629045,9.806137085,-0.59523797,-0.320366651
9.701258659,1.026889205,-0.801435649,9.807795525,-0.478559613,0.222181782
9.697416306,1.043928504,-0.74184823,9.757668495,-0.357426733,0.622383595
9.752542496,1.026512504,-0.683136463,9.657917023,-0.47909525,0.487929225
9.863927841,0.811685681,-0.740376711,9.633022308,-0.661374867,0.157339215
9.999734879,0.592611551,-0.785002232,9.710492134,-0.652243495,0.017064003
10.03157234,0.524130285,-0.779966652,9.789355278,-0.614690483,-0.063460909
9.968139648,0.580664814,-0.758762121,9.851593018,-0.615026295,-0.046411138
9.888893127,0.65246439,-0.782163322,9.794653893,-0.647934377,0.055036537
9.803173065,0.720517457,-0.738460898,9.754817963,-0.686511099,0.064789526
9.739052773,0.799990594,-0.696910083,9.670743942,-0.718238592,0.033090241
9.714313507,0.847621441,-0.630605042,9.621814728,-0.626973987,-0.312711954
9.754668236,0.800596297,-0.633964002,9.706047058,-0.680906832,-0.723047256
9.777330399,0.849585414,-0.681742191,9.808362007,-0.888125777,-0.977077246
9.74181366,0.909562707,-0.680537462,9.870796204,-0.8344962,-1.054554224
9.681340218,0.993454099,-0.693553209,9.902977943,-0.716527879,-0.455522746
9.656978607,1.039990664,-0.677603304,9.790759087,-0.6383605,0.097464703
9.67761898,1.009524345,-0.810098231,9.723638535,-0.647217453,0.298440099
9.826272011,0.850349069,-0.613394856,9.667767525,-0.748907268,0.51084888
9.77472496,0.901609182,-0.230562285,9.605049133,-0.666714728,0.6259951
9.768099785,0.9979828,-0.176577404,9.610981941,-0.560217977,0.486677617
9.828259468,1.01855576,-0.120751888,9.699438095,-0.637103319,0.253652662
9.981216431,1.035156608,-0.349687904,9.784129143,-0.756838739,0.026724098
10.00599575,1.122396111,-0.44270283,9.815695763,-0.812544286,-0.130484492
9.992882729,1.199049473,-0.679272056,9.770718575,-0.857458174,-0.173917949
9.805665016,1.16996038,-0.772268057,9.736836433,-0.867282391,-0.192124352
9.637766838,1.296874523,-0.854524791,9.710249901,-0.89172709,-0.06495972
9.589435577,1.410661578,-0.925321579,9.687866211,-0.801333308,0.007932702
9.511033058,1.358434916,-1.089373112,9.658592224,-0.706349254,0.091640934
9.466939926,1.333671927,-1.146242499,9.74041748,-0.660507381,0.042228471
9.605461121,1.505495191,-1.22198534,9.748450279,-0.678040087,-0.083172396
9.710567474,1.611122966,-1.207168341,9.784584045,-0.716296017,-0.116677746
9.73018837,1.619560599,-1.206850886,9.7710886,-0.669120014,-0.16811195
9.656177521,1.57514143,-1.176779509,9.773421288,-0.726210296,-0.19595173
9.553333282,1.537699461,-1.119851708,9.763466835,-0.730561376,-0.223189935
9.481609344,1.586684823,-1.164781928,9.74912262,-0.728203416,-0.20314531
9.475945473,1.541816592,-1.195095658,9.732983589,-0.700953126,-0.039247107
9.47854805,1.455568075,-1.149895906,9.743380547,-0.614685059,0.116854519
9.460679054,1.344456553,-1.045137644,9.717375755,-0.486567587,0.06354674
9.593676567,1.313672662,-1.02814281,9.742163658,-0.598683774,-0.091352716
9.709834099,1.335959673,-0.97824949,9.808612823,-0.66241467,0.016041331
9.755018234,1.415781856,-0.908330917,9.819264412,-0.640286863,0.156611979
9.732651711,1.497160673,-0.88193804,9.741786003,-0.60565871,0.143815562
9.744748116,1.5169698,-0.876740754,9.785264969,-0.618911624,-0.060354728
9.708116531,1.533896089,-0.912195921,9.798163414,-0.791416287,-0.164535031
9.703104973,1.560637712,-0.97047776,9.833449364,-0.75138855,0.085514985
9.670935631,1.57104516,-0.991948843,9.781045914,-0.6639781,0.310041398
9.653203011,1.607578516,-1.077643037,9.666371346,-0.780137122,0.21639955
9.661623955,1.622844934,-1.080660701,9.612605095,-0.933866322,0.185986713
9.657978058,1.641444325,-1.10723567,9.598567009,-0.794990361,0.207610294
9.701410294,1.658124924,-1.159292221,9.720069885,-0.652577639,0.055992343
9.710900307,1.654387832,-1.17377317,9.840565681,-0.720119119,0.057679232
9.704250336,1.690017223,-1.195832253,9.837765694,-0.815270424,0.164174274
9.667494774,1.58033371,-1.244674802,9.727337837,-0.672868609,0.299437553
9.668981552,1.561675549,-1.315916061,9.631679535,-0.709265053,0.2019317
9.670085907,1.552207828,-1.324813366,9.749333382,-0.808154345,0.041055329
9.658432961,1.577748775,-1.254956603,9.83069706,-0.912750483,0.087292425
9.635534286,1.743447304,-1.233455181,9.726264954,-0.889935851,0.26928845
9.65098381,1.702315688,-1.274106503,9.665866852,-0.751396716,0.118991673
9.655486107,1.616866946,-1.262772441,9.715507507,-0.913909793,0.064970672
9.632369995,1.597003102,-1.305471063,9.6577034,-0.960586071,0.016028354
9.60135746,1.692258835,-1.300683856,9.670393944,-0.929131031,-0.134242252
9.549104691,1.751101494,-1.303391814,9.779797554,-0.920516312,-0.213533476
9.526509285,1.756284356,-1.319940448,9.803481102,-0.880646586,-0.178835958
9.570402145,1.744369507,-1.321490049,9.80862236,-0.792597294,-0.317126393
9.580161095,1.791094422,-1.314345598,9.897149086,-0.953059614,-0.373057872
9.563215256,1.858094692,-1.372172236,9.88949585,-1.021715403,0.03910454
9.556177139,1.866639376,-1.314821601,9.760209084,-0.965328634,0.574064434
9.525051117,1.966194034,-1.241516232,9.685268402,-0.92035377,0.855328321
9.484792709,1.970325351,-1.194670439,9.617535591,-1.042452812,0.935656071
9.485888481,2.0395298,-1.159395695,9.511171341,-1.232931018,0.739579976
9.527599335,2.031841993,-1.114555836,9.444344521,-1.262399554,0.567310214
9.61714077,1.923309207,-1.077241898,9.46169281,-1.142217159,0.178499252
9.623329163,1.764999151,-1.040197372,9.673326492,-1.073653936,-0.469133466
9.598887444,1.611609697,-0.944739223,9.805473328,-1.277127743,-1.062892079
9.548272133,1.548008204,-0.877362549,9.988552094,-1.451665521,-1.190120578
9.559256554,1.561920524,-0.870562434,9.937579155,-1.331267834,-0.580426276
9.632610321,1.680853486,-0.922203004,9.851326942,-1.257142186,0.070948951
9.698580742,1.808696628,-0.909873188,9.829418182,-1.179815412,0.385902941
9.642957687,1.888976932,-0.878194809,9.626873016,-1.315748572,0.50422281
9.590403557,1.939019442,-0.806787372,9.538847923,-1.39785409,0.734290242
9.635637283,1.910153866,-0.825417161,9.487754822,-1.547309637,0.662395179
9.694964409,1.834171414,-0.920540214,9.469087601,-1.760118008,0.238806143
9.701776505,1.712621093,-0.873781085,9.445622444,-2.127267122,-0.125167906
9.65591526,1.603946328,-0.862801135,9.432734489,-2.054915667,-0.507128596
9.646296501,1.590670705,-0.849546671,9.662172318,-1.809130907,-0.199313283
9.693998337,1.714300752,-0.942548752,9.748318672,-1.823359847,-0.308677197
9.583005905,2.248080492,-0.930484056,9.78553772,-1.757704973,-0.215476111
9.514697075,2.96184206,-0.910764039,9.799720764,-1.303497195,0.018470457
9.694996834,3.093307734,-1.053700686,9.765470505,-1.209796667,0.308274359
9.807136536,2.594447613,-1.044331431,9.742067337,-1.273286939,0.41305241
9.70949173,1.985994935,-0.87072885,9.748307228,-1.2263273,0.506345987
9.466682434,1.611615896,-0.767481327,9.668634415,-1.227748871,0.498429656
9.232055664,1.479307294,-0.666853547,9.647130013,-1.608726621,0.301829755
9.125519753,1.48839879,-0.696468771,9.65703392,-1.706331372,0.189413428
9.227422714,1.59493053,-0.757228613,9.769202232,-1.457095861,-0.081132226
9.388355255,1.762457252,-0.754987895,9.845541954,-1.261669397,-0.299540669
9.607344627,1.974502444,-0.73938489,9.89379406,-1.410577536,-0.448921233
9.758765221,2.097349882,-0.75880909,9.807023048,-1.648015141,-0.334724188
9.832119942,2.066619873,-0.781238973,9.755147934,-1.689500809,-0.390291393
9.758888245,1.988500953,-0.787580907,9.636695862,-1.690125585,-0.353252769
9.620920181,1.949968338,-0.748834968,9.599683762,-1.770598769,-0.139059722
9.45533371,1.999809861,-0.804819822,9.571809769,-1.622799635,0.289588392
9.352132797,2.056625366,-0.821594,9.559468269,-1.396605253,0.540093362
9.404449463,2.118983269,-0.880944729,9.534691811,-1.389766097,0.529530942
9.446732521,2.191818476,-0.871045232,9.423739433,-1.713833928,0.432593107
9.488746643,2.174907923,-0.925447881,9.358644485,-1.973812699,0.202216581
9.484897614,2.087302923,-0.969957173,9.270359039,-2.252149105,0.043773726
9.483273506,1.96577704,-1.050017118,9.263679504,-2.517567396,-0.179453894
9.448081017,1.840554953,-1.087372422,9.377365112,-2.449100256,-0.192343533
9.394285202,1.787748575,-1.127052665,9.558001518,-2.172443151,-0.225347772
9.393789291,1.751032591,-1.22688663,9.743171692,-1.750640273,-0.400223047
9.414952278,1.896610141,-1.135334492,9.990124702,-1.211280227,-0.716367662
9.524115562,2.225309134,-1.185551286,10.08397865,-1.611989379,-1.157366157
9.666814804,2.308713913,-1.271234632,9.935016632,-2.121128798,-1.467091799
9.6550951,2.177466869,-1.248368382,9.718099594,-2.390189171,-2.030251503
9.523602486,2.138685465,-1.224726796,9.258343697,-3.180093288,-2.899336815
9.530900002,2.277943373,-1.216946483,9.781573296,-3.290325403,-2.506847858
9.215592384,2.601600647,-1.140547395,9.329839706,-2.203619003,-1.184069157
9.356728554,2.326788902,-1.349549174,9.255111694,-2.790218592,-2.032612562
9.296459198,2.323516846,-1.346470952,9.702773094,-2.041891336,-1.025951385
9.335988998,2.174849987,-1.417345762,9.67136097,-1.560773134,-0.36112082
9.547568321,2.124919653,-1.473321795,9.665143967,-1.468286157,0.533558488
9.717801094,2.121901989,-1.491705537,9.541664124,-1.568543434,0.978230655
9.685870171,2.208245993,-1.392942905,9.207240105,-1.738512635,1.437574744
9.623392105,2.167408228,-1.371358395,9.12226963,-2.174716234,1.359662175
9.543469429,2.160271168,-1.476391912,9.340090752,-2.401337147,1.03605938
9.569160461,2.130540848,-1.445495963,9.565106392,-1.701958776,1.002727747
9.592480659,2.03570652,-1.469856858,9.663306236,-1.068320632,0.721403897
9.644991875,1.942371368,-1.451209068,9.864346504,-1.30440557,0.496207148
9.684283257,1.882760644,-1.470480561,9.793398857,-1.553611875,0.32342267
9.740353584,1.883139849,-1.510900497,9.554932594,-2.163743019,0.072752669
9.774112701,1.88399899,-1.522873044,9.32135582,-2.611188889,-0.026492253
9.753120422,1.905959249,-1.520785093,9.259057045,-2.597851276,0.093011476
9.710126877,1.963739872,-1.504573584,9.356686592,-2.153443575,0.490773082
9.643125534,2.01786685,-1.518762946,9.565331459,-1.477489948,0.776758134
9.658596992,2.098940849,-1.45553267,9.77972126,-0.980648637,1.179698467
9.709336281,2.103082418,-1.401511192,9.839972496,-0.923260272,1.356004357
9.746893883,2.145699263,-1.38632226,9.785902023,-1.445220232,1.239243388
9.735198975,2.127806187,-1.405627728,9.534016609,-1.694724083,1.188462019
9.691740036,2.041704655,-1.501396775,9.268533707,-2.137224674,0.762507379
9.653260231,2.003187895,-1.565000415,9.278544426,-2.528993368,0.07815548
9.578569412,2.020809412,-1.597738147,9.304642677,-2.572045326,-0.300356895
9.499640465,2.07608223,-1.614788532,9.373049736,-2.718522549,-0.397108555
9.382890701,2.098029613,-1.617878795,9.378852844,-2.66286993,-0.298755497
9.316329002,2.167373657,-1.65309751,9.43091774,-2.30164814,-0.012975459
9.262155533,2.265568256,-1.66537559,9.41488266,-2.214712858,0.155181676
9.251643181,2.39399457,-1.656722665,9.343545914,-2.138513088,0.298617393
9.283605576,2.476268291,-1.618103266,9.347654343,-2.18144393,0.19078137
9.271830559,2.596036673,-1.61360991,9.422768593,-2.364774227,0.122088328
9.232276917,2.770098209,-1.630883574,9.579589844,-2.145605326,0.175706327
9.165862083,2.852884293,-1.645357251,9.657887459,-1.55339396,0.447027117
9.133948326,2.919620275,-1.611245394,9.583233833,-1.464766145,0.513135612
9.169145584,3.033689022,-1.601541638,9.605140686,-1.457882047,0.196892187
9.243099213,3.118001938,-1.577298999,9.593950272,-1.801943064,-0.108441032
9.25929451,3.138850451,-1.521027446,9.483187675,-2.275392056,-0.327415287
9.273020744,3.004749537,-1.595687032,9.456917763,-2.360438347,-0.409814656
9.280213356,2.801020384,-1.60832119,9.316563606,-2.478897572,-0.359585881
9.309831619,2.655283928,-1.614633679,9.377447128,-2.684555054,-0.593102694
9.329585075,2.66140461,-1.590803981,9.524821281,-2.298453569,-0.352800161
9.311824799,2.772020817,-1.502849221,9.724021912,-1.649620414,-0.211098745
9.346699715,3.032422066,-1.495461941,9.932732582,-1.342693448,-0.105199724
9.482595444,3.104462385,-1.303424835,10.11773396,-0.931606531,0.078786038
9.449513435,2.96739006,-1.166530132,10.05590439,-0.926438928,0.151578799
9.377316475,2.759677887,-1.158987522,9.846148491,-1.157608986,0.276105553
9.482897758,2.587487936,-1.30821538,9.647220612,-1.419963002,0.343395442
9.667136192,2.508459806,-1.407208204,9.410150528,-1.852879405,0.213080257
9.670205116,2.449609041,-1.310665011,9.282140732,-2.170481443,-0.144779205
9.545431137,2.463997364,-1.28336513,9.393352509,-2.225296974,-0.143681124
9.421844482,2.532083035,-1.290143728,9.569974899,-1.909103632,0.034815118
9.388879776,2.61969614,-1.381490827,9.708263397,-1.401156664,0.19226104
9.442502022,2.607599497,-1.342235088,9.95751667,-1.206056476,0.301756889
9.441030502,2.587257147,-1.31176424,9.861150742,-1.387129903,0.255272686
9.435864449,2.65781045,-1.323204875,9.712464333,-1.503260374,-0.000404031
9.465064049,2.783055544,-1.335026026,9.704181671,-1.639001608,-0.267637283
9.466730118,2.920275927,-1.380608916,9.607424736,-1.681706548,-0.481849074
9.485829353,2.981870413,-1.378982306,9.555299759,-1.695900679,-0.50598675
9.672638893,2.977824211,-1.142686129,9.33825779,-1.813648582,-0.296487123
9.913720131,2.997891188,-0.849773228,9.116744041,-1.98789537,-0.237667739
9.945785522,3.055557251,-0.589485049,9.044727325,-2.281920195,-0.223406583
9.789144516,3.004153967,-0.455067098,9.15265274,-2.670037746,-0.009743564
9.533513069,2.931830645,-0.488895714,9.55347538,-1.889483094,0.471841156
9.367660522,2.891257524,-0.506203115,10.01789284,-0.715339124,0.613413572
9.230866432,2.980968475,-0.55133611,10.45705128,-0.331706762,0.788746297
9.135307312,3.202289343,-0.635458291,10.62580299,-0.285477906,0.581122816
9.211011887,3.439000845,-0.772219121,10.65450287,-0.136964038,0.322582871
9.276833534,3.634167671,-0.862479448,10.27413654,-0.441165656,-0.034991294
9.36630249,3.709478855,-1.021415472,9.839688301,-1.202198505,-0.123370029
9.460219383,3.714264631,-1.1268332,9.403621674,-1.650612354,0.003598981
9.551584244,3.73086834,-1.009345651,9.061005592,-1.985488415,0.148996606
9.489706039,3.774861097,-0.939619064,8.887255669,-2.095810175,0.2870076
9.37038517,3.728779793,-0.9643929,9.031323433,-2.019026756,0.539402008
9.257117271,3.51766634,-1.016694546,9.255913734,-1.837518334,0.892593086
9.167056084,3.32236433,-1.158021092,9.666426659,-1.154146791,1.425059319
9.079374313,3.345201731,-1.228144646,9.98610878,-0.458106697,2.187069654
8.976205826,3.56104517,-1.266200781,10.07937336,-0.004824704,2.574832678
8.891383171,3.803943396,-1.32043016,9.958037376,-0.193126559,3.133440733
8.81535244,3.959025621,-1.379924655,9.538022995,-1.029110074,3.195850611
8.751009941,4.058122635,-1.541222334,8.997190475,-1.880776167,2.873855591
8.723526001,4.172828197,-1.594259977,8.514800072,-2.69210434,2.5364604
8.801678658,4.329203129,-1.546188712,8.22949791,-2.986063719,2.090536356
8.892982483,4.409573555,-1.428689718,8.339584351,-2.855807066,1.751228809
8.781431198,4.436517715,-1.326927423,8.607315063,-2.74515605,1.679164171
8.584756851,4.412410259,-1.358368993,9.023031235,-2.597953796,1.25235498
8.461990356,4.253854275,-1.503592491,9.49759388,-2.063831568,1.432707071
8.34597683,4.15667057,-1.605407,9.739439011,-1.231031656,1.365130782
8.331601143,4.161615372,-1.773815513,10.018116,-0.739180326,0.607865036
8.420441628,4.227838039,-1.974423528,10.66497612,-0.273552597,0.045958545
8.562360764,4.25206852,-1.881603956,10.70672894,-0.591695249,-0.377634019
8.271917343,4.725664139,-1.927101135,10.38903999,-0.811175644,-0.528761327
8.466877937,5.167609215,-2.272685051,9.88065815,-1.382917285,-0.853431761
8.568609238,5.427800655,-2.047838926,9.198738098,-2.416005135,-1.292906165
8.48730278,5.701683521,-2.093280554,8.564385414,-3.403643847,-1.772111773
8.235911369,5.891723156,-2.001451254,8.19262886,-4.276100636,-2.062000036
8.042534828,6.048083305,-1.827303529,8.479608536,-4.170809746,-1.946228147
7.892266273,6.091112137,-1.700670123,9.336543083,-2.205775976,-0.55082339
7.81327486,5.917361736,-1.714323521,10.62987041,0.436176628,1.274398565
7.72426939,5.701560974,-1.716169477,11.3133316,1.124143004,2.126794815
7.672459602,5.535775185,-1.829062581,11.13031769,0.239448234,1.844214082
7.846300602,5.503067493,-2.002795696,10.31278133,-0.929434478,1.325413346
8.061015129,5.624031544,-2.064749002,9.594889641,-2.025638342,0.972681344
8.284274101,5.816417694,-2.103721619,9.075854301,-2.387130499,0.814522266
8.457706451,5.993578434,-2.209580183,8.831364632,-2.236495972,0.513827801
8.560250282,6.087339401,-2.30615592,8.688836098,-2.28538084,0.159568936
8.615597725,6.05303812,-2.34844923,8.657100677,-2.337161541,0.055464339
8.678585052,5.987848759,-2.251248598,8.864163399,-1.966564775,0.22089918
8.661478996,5.771479607,-2.123350382,9.321338654,-1.550242305,0.280866325
8.50776577,5.844493866,-2.126510859,10.01732635,-1.118177414,0.003191658
8.728588104,5.538276196,-1.977799892,10.88443565,-0.366251528,-0.461741507
8.4951334,5.359600544,-2.009814262,11.46461868,-0.204931945,-0.403954834
8.513943672,5.348218441,-1.994486928,11.07149315,-0.329114348,-0.482989609
8.747112274,5.41258955,-1.818035364,10.24122715,-1.138711929,-0.401909113
9.020310402,5.568934441,-1.647788048,9.461159706,-1.813996911,-0.172839582
8.985286713,5.532989979,-1.512707949,9.35276413,-1.95498836,0.097842805
8.807271004,5.449876308,-1.477855682,9.406770706,-1.595870733,0.389118969
8.547348022,5.26029253,-1.505287766,9.364183426,-1.536777258,0.216505036
8.328018188,5.05184269,-1.49487865,9.307262421,-1.98085618,-0.145264611
8.287478447,4.891209602,-1.480793357,9.280012131,-2.162941694,-0.27176109
8.273220062,4.806346416,-1.390703678,9.578839302,-1.787022591,0.150727183
8.274090767,4.926186085,-1.317463636,9.822728157,-1.556307077,0.323055774
8.325192451,5.210175514,-1.348272562,10.15186787,-1.156815886,0.770602882
8.319862366,5.305421352,-1.403481364,10.053936,-0.645468771,1.246142626
7.935832977,5.501169205,-1.367794037,9.740237236,-0.616701365,1.258585095
7.961898804,5.715477943,-1.350046039,9.496809959,-0.836150289,1.056475282
8.071973801,5.995132446,-1.345400691,9.548418999,-1.067754745,0.431604058
8.227246284,6.220527172,-1.377454877,9.637757301,-1.407887578,-0.202316612
8.422708511,6.176747799,-1.249955058,9.70906353,-1.649038792,-0.572089493
8.244260788,5.760462761,-1.005097032,9.697793961,-1.571000934,-0.582711935
8.055653572,5.460792065,-1.031308055,9.613478661,-1.447386861,-0.727583885
8.087984085,5.503665447,-0.989323854,9.758255005,-1.426625252,-0.57311064
8.293768883,5.827157974,-0.760337532,9.801896095,-1.35219264,0.336853921
8.425539017,6.203595638,-0.709450483,9.642612457,-0.833209693,0.6853441
8.340619087,6.289200306,-0.589751422,9.546312332,-1.121338487,0.072660655
8.117107391,6.036989689,-0.735124886,9.990431786,-1.094851851,0.807053924
7.95715332,5.64972496,-1.007653952,9.653862953,-0.883460045,0.936959982
7.779597282,5.28793335,-1.273405552,9.805549622,-0.760547698,0.916940689
7.67484808,4.619458199,-1.31112051,9.668252945,-1.110044837,0.278939158
7.223007679,3.996140242,-1.278390765,9.491193771,-1.519335747,-0.51916039
7.353116035,3.859655142,-1.340117097,9.47678566,-2.0521667,-1.315971136
7.945462227,3.976233244,-0.877035737,9.70049572,-2.155703306,-1.137922406
8.779585838,4.191797733,0.065498866,9.761833191,-1.632815242,-0.17072621
9.264044762,4.68239069,-0.178827673,9.367773056,-0.760773957,0.048841748
9.645870209,5.024113178,-0.687826335,9.713216782,-1.479754686,-0.266681612
9.537005424,5.290254593,-0.829146504,9.705714226,-1.060587883,0.972418129
9.170466423,5.67609787,-1.036055207,9.570026398,-0.894521534,1.039928913
8.952926636,4.994321823,-1.29236722,9.460481644,-0.687956095,1.075417161
8.627988815,3.723033428,-1.152927876,9.391892433,-0.8804847,0.576463759
8.383410454,2.394506454,-0.701809943,9.510170937,-1.103879213,-0.057107419
8.469406128,1.591480017,-0.411783725,9.620731354,-1.142043829,-0.419838428
8.634515762,1.293880224,-0.319187164,9.625476837,-1.224892974,-0.537310719
8.841838837,1.277602196,-0.303390205,9.802601814,-1.236712694,-0.438793182
9.003341675,1.489668846,-0.222560436,10.01929855,-0.864264071,0.174188092
8.999668121,1.836277127,-0.228047296,10.01278973,-0.507504702,0.764868319
9.144566536,1.793913126,0.241067469,9.821725845,-0.126474127,1.27294445
8.940887451,1.517665029,0.444933474,9.620981216,-0.172639668,1.558487058
8.453653336,0.942516267,0.526985645,9.524472237,-0.159010902,1.568279862
7.990933895,0.543699622,0.349534571,9.391413689,0.094283745,1.129901648
7.810913086,0.546542645,-0.038760491,9.435795784,-0.183120817,0.800711691
8.142445564,0.815258682,-0.179199561,9.611950874,-0.287396491,0.110512979
8.749902725,1.519672036,-0.537551105,9.840517998,-0.31415993,-0.24687849
9.267222404,2.069206953,-0.834974527,9.90910244,-0.35474807,-0.209906638
9.168684959,3.307547092,-0.917813838,10.05022812,-0.304628402,0.491420537
9.376885414,4.382946968,-0.206754982,9.974740028,-0.40407607,0.877120852
8.517301559,4.613179684,-0.176351711,9.771902084,-0.282292753,0.875375152
7.82626009,3.587455034,-0.539329529,9.46706295,0.173586786,0.89069736
7.822812557,2.826899529,-0.689756334,9.509545326,0.397863686,1.334014654
8.131004333,3.087815523,-1.099353552,9.362904549,0.830883086,1.046114326
8.324353218,3.796658278,-1.097259283,9.677144051,0.97642082,0.217995912
8.458335876,4.493161678,-0.881192446,9.705260277,0.92738837,-0.642595768
8.585903168,4.79626894,-0.729621649,9.85375309,0.802322268,-0.711636722
7.897415638,3.957312107,-0.247255057,10.1867218,-0.2444316,-1.068487763
7.139417171,3.242296219,-0.644684017,9.91827774,-0.443098038,-1.671448946
7.47896862,3.560148478,-1.119665742,9.745033264,-0.066489443,-1.922620058
8.187949181,4.468675137,-0.665271878,9.756065369,0.38947314,-0.965329051
8.859045982,5.602505684,0.184480846,9.63192749,0.70651263,0.375929564
9.370617867,6.942094803,0.780079067,9.467424393,1.284557819,0.435854703
9.859051704,8.147834778,0.945468128,9.459177971,1.275378346,-0.153818592
10.2033453,8.428632736,1.03063345,9.67184639,0.859606206,-0.395126939
9.74840641,6.804197788,1.077849746,9.924546242,0.465620428,-0.580447018
8.914890289,4.51848793,1.075398922,10.20420551,0.259109557,-0.622109056
9.021934509,4.215420246,0.772173584,10.1210022,0.45663479,-0.422773153
9.257279396,4.284109592,1.62962532,9.947868347,1.262035847,-0.182829767
9.559111595,4.551963329,1.611145139,9.478145599,1.781645179,0.413951814
10.07217121,4.278659344,1.478063941,9.227556229,1.907993674,0.619487941
10.20234966,3.436201572,1.490118742,9.359881401,2.352540493,0.997752845
10.36864662,3.264729738,1.560024023,9.394536972,1.498170018,0.084081478
10.32499313,3.426519394,1.339261651,9.482788086,0.791529775,-0.833438814
9.965382576,2.875333071,0.960607827,9.787604332,-0.681658804,-1.715323091
9.345256805,2.262265444,0.851301014,9.90306282,-1.35737133,-1.784209967
9.042253494,1.952297449,0.520566821,9.885566711,-1.15139389,-0.653542221
9.001918793,0.716292024,0.501100123,9.32784462,0.166657478,0.046384383
9.395432472,-0.333341509,1.171923399,9.44899559,1.24815011,-0.423851907
10.11911297,-0.106331028,1.444677353,9.403630257,0.842037916,-1.879471064
10.9413805,0.704418182,1.163804889,9.623301506,-0.063484915,-3.042476892
11.56137657,0.914673924,0.014419127,9.921794891,-1.2897892,-3.683880091
11.82370377,1.050755143,-1.256392956,10.23360157,-1.326703787,-3.455657721
11.45048332,1.909681439,-2.109799147,10.1317749,-0.45559901,-2.487961769
10.85007572,2.406008244,-2.25466156,9.469740868,-0.084774859,-0.91657728
10.46188545,2.50895977,-1.652314901,9.609687805,0.045009714,0.098833017
10.03319073,2.798540831,-0.337254554,10.19596195,-0.786338508,0.282094508
9.342679977,2.562832594,1.042609692,11.03010368,-0.185043409,1.141281605
8.863892555,2.757449627,1.605941176,12.32899094,0.210371926,1.866002083
8.631144524,3.500441551,2.363622427,13.56100368,1.660755634,2.297312021
8.445877075,4.149253845,2.687796831,13.49019527,0.872507095,0.958757162
8.131588936,4.47277689,2.773656368,13.5468998,1.818805099,0.774596095
8.020064354,4.560727596,2.15389514,15.56342411,4.418471813,2.83919692
8.357180595,4.525723934,1.178806305,14.35877228,-4.50970602,2.909373283
9.010649681,4.172660351,0.531955361,12.44426823,-6.098511696,0.617837608
9.542126656,3.270022631,0.532648802,11.41173267,-4.41841507,-1.874112964
9.996003151,2.90119791,0.543860734,11.33887196,-3.691806078,-1.014339805
10.41058826,2.884777308,0.233371034,11.42428303,-3.059206009,0.037325256
10.71709919,2.506975651,0.01680005,11.24812126,-2.445926666,-0.228362858
10.80119705,2.337287426,0.222068191,11.28152561,-2.670606613,-1.17817831
10.70062256,2.097905159,0.437535346,11.63662338,-4.090023994,-1.837808371
10.48313713,2.523324013,0.389639705,11.89028454,-6.393897057,-3.418571711
10.10541821,3.151399851,0.045503758,12.18907928,-6.094991207,-4.200119495
9.380339622,3.762597561,-0.165791392,12.86301804,-4.467406273,-4.301062107
8.76212883,4.44504261,-0.031933121,13.15198517,-3.014344454,-3.937246323
8.393135071,4.458621502,0.321008474,12.96135521,-1.923433423,-4.298350334
8.565182686,3.894046783,0.825783193,12.83687401,-1.020948052,-4.391586304
9.074356079,3.135416031,1.393379688,12.32376099,-0.465104729,-4.361820698
9.436982155,2.494225502,1.442561269,11.59552288,-0.007561352,-4.316746235
9.671038628,2.029129028,1.350573659,11.0864315,0.16253078,-3.861225367
9.528680801,1.99060154,0.470650792,10.85774326,-0.275417477,-3.169873953
9.470248222,2.239120007,-0.201885283,10.6655798,-0.839379907,-2.371689558
9.524560928,1.545565367,-0.353089154,10.75742722,-1.217706203,-1.647817612
9.190574646,2.099642992,-0.430031568,10.9847784,-1.238483787,-1.180947185
9.250812531,2.138508797,-0.680248678,10.99346352,-0.530414224,-0.731100976
9.340977669,2.044151068,-0.206408679,10.72957706,0.462337583,-0.224049762
9.420970917,2.248388052,1.031450868,10.39466763,0.839917302,0.488978088
9.203948975,1.666564584,1.614987254,9.873184204,0.872502089,1.104986906
9.484548569,1.351646185,1.443362236,9.389288902,0.740556121,1.531276941
10.08371449,1.157240391,1.120375514,8.957335472,0.58713907,1.866115928
10.46974373,0.700609982,0.714208901,8.660754204,0.791859329,2.037642002
10.4234581,0.580911756,0.241698623,8.50450325,1.033429623,2.155749083
10.34368134,0.148827463,-0.208195448,8.325792313,1.215075612,2.124571562
10.15706253,0.22093083,-0.442187458,8.045353889,1.483711839,2.011195898
9.905200958,1.177177191,-0.662091374,7.735561848,1.843862295,1.987143517
9.568289757,2.063721895,-0.863087177,7.682392597,1.85789299,1.988348842
9.322271347,2.332458973,-0.639478326,7.992183208,1.374592423,2.303580999
9.335419655,2.501718521,0.160067812,8.497751236,0.500359595,2.589278936
9.459280968,2.433569193,1.258688807,8.626673698,0.05017025,2.560960531
9.504478455,1.923252821,1.975593805,8.512903214,0.527274311,2.413067102
9.681859016,1.543014646,1.501734257,8.310301781,1.489668012,2.203059435
9.687641144,1.542421579,0.777123332,8.084151268,2.35312748,2.118090153
9.590272903,1.888642788,0.10175629,8.06703186,2.869710445,2.0093472
9.34566021,2.663130283,-0.44819811,8.478622437,2.921745777,1.886351228
9.302758217,3.051886082,-0.772038162,9.130420685,2.557275295,1.909425378
9.616358757,2.526052713,-0.715511501,9.499030113,2.256991863,2.028105259
9.995845795,1.909204483,-0.43774274,9.425413132,2.514873505,1.98593986
10.22096729,1.449612021,-0.214771271,9.507287025,2.706279278,1.784073472
10.36049557,0.969051719,-0.153214991,9.970280647,2.261059523,1.441839695
10.29335117,0.572226584,0.012379674,10.42249775,1.722050428,1.110965014
9.86420536,1.146499634,0.569986045,10.884902,1.409255266,0.940167189
9.443156242,1.908420205,0.899821639,11.21665859,1.289344668,0.844952404
9.225131989,2.156273127,0.628313661,11.36446571,1.404979706,0.752065659
9.305583954,2.564285755,0.201084733,11.49162388,1.393339157,0.914025903
9.553174973,2.847260475,-0.109394461,11.33295822,1.0185467,1.284710765
9.786684036,2.835881948,-0.132985443,10.71484661,0.751018107,1.514521718
9.929345131,2.618187189,0.054312013,10.10495758,0.82256639,1.302798986
9.917127609,2.168694496,-0.1871427,10.33168221,1.137548566,1.073184133
9.987363815,1.415325165,-0.141032189,10.86011887,1.262613416,0.949535966
9.940309525,1.407577515,0.004359019,11.12151527,1.398291945,0.819825411
9.588862419,1.942973614,0.22132729,11.5926466,1.302418351,0.762165189
9.36374855,1.89796567,0.243522421,12.06824875,0.713114977,0.69480896
9.503790855,1.58685863,0.367361397,12.18404198,-0.132899538,0.491314709
9.621378899,1.623832822,0.743084311,11.96765995,-0.673837006,0.24340871
9.873007774,1.476337433,1.088263154,11.65563869,-0.986402154,0.054648444
10.15082645,1.241976976,1.565459371,11.37765694,-1.210801721,-0.093330316
10.13897419,1.030344129,1.350301862,10.9723053,-1.340446353,-0.009985358
10.09365749,1.244339108,0.743800998,10.58168221,-0.96068418,0.17012462
9.956284523,1.693522692,0.413507164,10.37925243,-0.526231408,0.276129961
9.004613876,3.868428946,-0.898029923,10.32742023,-0.166678339,0.506069422
8.59927845,5.13713789,-2.859250307,10.37661362,-0.111381963,0.851761043
8.746294975,4.98222971,-3.777916908,10.49741173,-0.577834904,0.897954702
9.005259514,4.50675869,-4.222400188,10.55011082,-1.21657908,0.889682829
9.160587311,4.360815048,-4.298954964,10.56821442,-1.952572107,0.845741034
9.159635544,4.422761917,-4.758816242,10.66388226,-2.89450717,0.687980354
9.442865372,3.877729177,-4.824295998,10.68499184,-3.629021645,0.263436288
9.635899544,3.21889472,-5.051598549,10.50237656,-3.748911619,-0.407561451
9.894659996,2.480983973,-4.502228737,10.14284134,-3.371101379,-1.095594645
10.06427574,2.26624155,-3.966098547,9.782995224,-3.151979685,-1.693225622
10.37607574,2.228982449,-3.211225986,9.527079582,-3.178135633,-1.885728955
9.969766617,1.590022564,-1.902350307,9.632894516,-2.955077887,-1.736887217
9.460856438,1.859023452,-1.574804664,10.17179871,-2.756864071,-1.391694546
9.439564705,2.39930892,-1.060316086,10.63343906,-2.953593969,-0.864950538
9.42769146,2.110791922,-0.494690776,10.64031601,-3.911572218,-0.6062994
9.509943962,0.966978073,-0.528583407,10.29103851,-5.03839016,-0.611749291
10.13756561,0.311970085,-0.672618032,10.49983883,-3.952570677,-0.605525017
10.47222233,1.053635597,-0.424801171,10.31093025,-3.318547726,-0.895083606
10.34431171,0.56145364,-0.435896546,10.45434189,-2.243442774,-1.340210199
10.39285183,1.252667427,-0.494332373,9.968122482,-2.331175327,-1.640001178
9.861824036,1.121971965,-0.450799644,9.544976234,-3.305430412,-2.188426018
9.657436371,0.76713407,-0.780160308,9.149255753,-4.637077808,-3.063585281
9.35942173,1.241676927,-0.783090115,8.756447792,-3.005345106,-2.345972776
9.139512062,3.230469942,-0.818751812,8.787204742,-3.536907673,-2.142654181
8.80758667,2.843112707,-1.192319393,9.194480896,-2.498615742,-2.039385319
9.262814522,3.734307051,-0.733943164,9.592347145,-2.971122503,-1.638853788
9.139081001,3.183190823,-0.279348552,9.309263229,-3.676432371,-1.569689751
9.632112503,2.612578154,-0.071861386,9.191496849,-3.044018984,-1.553295255
9.692531586,1.910604477,0.317161977,8.901021004,-3.256007433,-1.851210356
9.64768219,1.630027533,0.72256726,8.843813896,-3.736413717,-2.131413698
9.793714523,1.27751255,0.888413668,9.327318192,-2.51471138,-2.207064629
10.07999992,2.139085293,0.815960824,9.281409264,-2.275593519,-1.992992997
9.862890244,1.441451788,0.746348023,9.114657402,-2.280676126,-1.757953048
9.793539047,1.939103842,0.625519633,8.776071548,-2.873129845,-1.919543028
9.325907707,2.055898428,0.578095734,8.63040638,-2.975043058,-1.984335065
8.901239395,2.092046022,0.596463501,8.928125381,-2.493017197,-1.968101859
9.057902336,2.258941412,0.465253651,9.306760788,-2.958836794,-1.782506466
9.221060753,1.555122018,0.449442923,9.521577835,-2.646081448,-1.703098059
9.629612923,1.682248354,0.865737259,9.52585125,-2.881008148,-1.737260818
9.815963745,1.226672292,0.987364352,9.57157135,-2.791422367,-1.900047898
10.18606567,1.063162684,1.407555461,9.67343235,-3.048759699,-2.104950905
10.23347759,0.866545081,1.670815825,9.887991905,-2.714598179,-2.157533407
10.25579357,1.201310277,1.683742404,9.949496269,-2.552128315,-2.061794996
10.24586105,1.428393245,1.572985649,9.972186089,-2.649404287,-2.013845444
10.19946861,1.64749825,1.494485736,9.797213554,-2.831897974,-1.938022017
10.03889084,1.809702992,1.295068741,9.663009644,-2.963741779,-1.957736015
9.889241219,1.871469617,0.921710432,9.499780655,-2.896975517,-1.81428051
9.738386154,1.73444736,0.548976541,9.392008781,-2.758863211,-1.586402535
9.660015106,1.568358541,0.175183013,9.345957756,-2.632506847,-1.365017533
9.532927513,1.56234467,-0.139860451,9.216197968,-2.947462082,-1.32288599
9.634331703,1.364527702,0.081112705,9.217255592,-3.057736874,-1.351462007
9.573307991,1.723960638,0.629201591,9.31434536,-3.104494095,-1.297442913
9.640659332,2.166352749,0.903350651,9.376356125,-3.021565199,-1.280764341
9.802325249,2.072434187,1.464639425,9.421408653,-2.780177116,-1.400431991
9.73929882,1.866496921,1.718093634,9.301571846,-2.843102694,-1.394513965
9.639221191,1.788757801,1.468900084,9.172613144,-3.016823292,-1.393653035
9.562101364,1.928112507,1.184098244,9.024500847,-3.004785776,-1.504989743
9.356546402,2.172959566,0.730764091,8.866486549,-3.079404354,-1.524637818
9.08757019,2.630017519,0.323004752,8.630316734,-3.462691069,-1.581285834
8.929093361,2.711533308,-0.029861623,8.538700104,-3.693449497,-1.612753272
8.878853798,2.800314188,-0.439250976,8.479084015,-3.721009493,-1.604039907
8.98415947,2.907510281,-0.412728161,8.531645775,-3.989580393,-1.606602907
9.122592926,2.921649694,-0.098913305,8.666291237,-4.079288006,-1.639323354
9.238242149,2.719594002,0.481438428,8.876928329,-3.756081104,-1.69800806
9.384190559,2.244038343,0.812107503,9.097613335,-3.466871738,-1.752081394
9.631501198,1.496979833,1.122661591,9.173605919,-3.550538063,-1.871697545
9.772441864,0.598712146,1.588130116,9.033283234,-4.190205097,-1.920973539
9.81593132,-0.029313745,1.634138346,8.758062363,-4.184133053,-1.957478881
10.12812328,0.544136643,1.597842097,8.510652542,-4.469997406,-1.865860939
10.10864258,0.70244211,1.515787125,8.691776276,-3.883587122,-1.718390465
10.01100731,1.81239903,1.167834997,8.633226395,-4.293424606,-1.631224513
9.607528687,1.66404438,0.958403587,9.263251305,-4.214235306,-2.222706556
9.44401741,2.004041195,0.621589363,9.202176094,-4.187599182,-2.063108444
9.246429443,2.630893707,0.565800786,8.431224823,-5.574045658,-2.048807621
9.129239082,1.335866332,1.02277565,8.876325607,-4.867442608,-2.210445642
9.39319706,2.875664234,2.05670619,8.770822525,-4.565152168,-2.079344749
9.18767643,2.953638315,2.436520815,8.84444809,-4.413319111,-2.018843412
9.194565773,2.510641336,2.828574181,8.557370186,-4.663125992,-1.94749248
9.055060387,2.198956966,3.393924713,8.511362076,-4.681051731,-2.019240618
8.940644264,2.237945318,3.797559261,8.455957413,-4.588582039,-2.083067417
8.969782829,1.867371321,3.693950176,8.403152466,-4.852463245,-2.080875874
9.229263306,1.455664396,3.642249346,8.422380447,-5.383957863,-2.383576393
9.437861443,1.235084414,3.417072296,8.382865906,-5.278637886,-2.499341488
9.543989182,1.422322154,3.002210617,8.362264633,-5.159651279,-2.177571535
9.485369682,1.610779047,2.367695808,8.259019852,-5.329752445,-2.144910097
9.226099968,2.211919546,1.348243594,8.237715721,-5.542473793,-2.202966928
9.446465492,3.096070051,0.398299038,8.143641472,-5.680185318,-2.326166153
9.8804636,2.800920248,0.047211044,8.00836277,-5.784996033,-2.48771286
10.02337933,1.826839566,0.20785448,7.905270576,-6.151185036,-2.673144817
9.9970541,1.538061738,0.490480363,7.778255463,-6.642929554,-2.895806789
9.760801315,1.504406571,0.466711849,7.561542988,-7.156909943,-3.093598366
9.779102325,1.258521318,0.337119013,7.106076717,-7.59568119,-3.043504238
9.858746529,0.960965931,0.032211818,6.726914883,-7.843035221,-2.947511673
9.54633522,1.447477579,-0.529739499,6.593958378,-8.116104126,-2.79304409
9.613682747,2.017412663,-0.76222223,6.623555183,-8.238510132,-2.544033289
9.722488403,1.92454648,-0.249916553,6.532836437,-8.234490395,-2.30228281
9.675227165,1.952054143,0.746299267,6.376927376,-8.301604271,-2.135747194
9.594118118,1.874479771,1.490451336,6.259386063,-8.483495712,-1.977217197
9.552392006,1.69235456,1.929249048,6.206980705,-8.729417801,-1.725858927
9.519109726,1.70265317,2.016486883,6.089374542,-8.229063988,-1.834103227
9.628813744,1.570269346,2.063298702,5.943349838,-7.613967419,-1.346941948
9.544677734,1.63994956,1.804543018,5.851798534,-7.537041664,-1.241700053
9.191093445,2.246442318,1.335168839,5.97781992,-7.351894379,-1.005805969
9.074142456,2.682863235,0.43493098,6.061462402,-7.204387188,-0.762531221
8.783207893,3.305459499,-0.549582481,5.939142704,-7.403266907,-0.873476088
8.791937828,3.873482704,-0.677874684,5.856901169,-7.765885353,-1.133492827
9.355311394,3.418454647,0.257791758,5.59621048,-7.522056103,-1.226640701
9.997159958,1.797299623,1.253315687,5.662668228,-7.120744228,-1.390579224
10.54582024,0.029183047,1.770230412,6.016965389,-7.021573067,-1.364936233
10.84126854,-0.098537795,1.937411189,6.479672909,-7.089772701,-1.347655892
10.70197487,0.615880251,1.701520681,6.795624256,-7.106129169,-1.379415631
10.24888992,1.081003785,1.163611412,6.975697517,-7.500151157,-1.454605222
9.805902481,1.572905302,0.69161278,6.937963486,-7.925291061,-1.381160975
9.474000931,1.893726826,0.232119069,7.020090103,-8.278341293,-1.751127243
9.224559784,2.285806179,-0.250386059,7.123195648,-7.850691319,-1.700606823
9.290241241,2.596667767,-0.417081028,7.280763149,-7.672158718,-1.595053673
9.618550301,2.47936058,-0.016094906,7.415611744,-7.713931561,-1.493280292
9.760127068,2.082795143,0.480160117,7.674468517,-7.496518612,-1.372764349
9.838292122,1.901021242,0.813707292,8.109970093,-7.30150795,-1.188609123
9.852039337,1.940166712,1.137683153,8.331933022,-7.082232475,-1.20229876
9.879781723,1.828589559,1.369865298,8.406804085,-6.697376728,-1.256364703
9.888383865,1.800689816,1.544188261,8.461375237,-6.539463043,-1.193335533
9.82179451,1.94486773,1.604536891,8.599749565,-6.611370087,-1.238239884
9.717000008,1.930624723,1.664292932,8.801350594,-6.84196806,-1.009219289
9.394501686,2.184957743,1.504517198,9.002240181,-6.929116249,-1.342028618
9.203480721,2.366455078,1.034941554,9.060163498,-6.777511597,-1.118847966
9.216253281,2.385858536,0.789829075,9.010164261,-7.074583054,-1.442709684
9.486761093,2.281681299,0.563071311,9.096568108,-7.206946373,-1.70979321
9.869409561,2.10765481,0.210466325,9.253376961,-7.137049198,-1.746648788
10.05225468,1.797800422,0.273043841,9.188540459,-7.001327991,-1.756310701
10.13808155,1.537450194,0.596417964,9.1372509,-6.802330017,-1.697697043
10.11065006,1.675000787,0.962519705,9.140735626,-6.481442451,-1.431951523
9.871703148,1.830160975,1.266863227,8.994939804,-5.730764389,-0.814308822
9.573954582,2.074830055,1.522796988,8.915651321,-4.570144176,-0.08278966
9.271442413,2.299639225,1.565351009,8.90990448,-3.675118446,0.4140701
8.915699005,2.405176878,1.231231928,8.932143211,-3.309327602,0.59992522
8.945130348,2.514117718,0.765888691,9.005737305,-3.479598522,0.182241797
9.43635273,2.28839922,0.572478771,9.055858612,-3.659378529,-0.011076257
9.936397552,1.969671369,0.83731395,8.725625992,-3.363476992,-0.048950505
10.03621101,1.758125901,1.373697639,8.192878723,-2.842133284,0.002435993
9.927155495,1.644582748,1.934115767,7.679865837,-2.367397785,-0.056367166
9.597793579,1.722330332,2.158164024,7.244356155,-1.926213264,-0.055915523
9.280097008,1.978722811,2.011491537,6.916837692,-1.613133788,0.158127546
9.244420052,2.060904026,1.502857804,6.69478178,-1.719153643,0.258427441
9.309704781,1.738591909,0.980542302,7.011145115,-2.326377153,-0.435656339
9.542883873,1.616808414,0.737593055,7.286687851,-2.296397686,-0.469925195
9.754091263,1.393092632,0.472073138,7.280698299,-1.664402843,-0.416202068
10.09462929,1.128154516,0.365262806,7.498596191,-1.178058863,-0.40923053
9.906662941,1.703981042,0.113725625,7.817509651,-1.108336091,-0.348692924
9.897913933,1.735071659,0.664823771,7.910695076,-1.282077432,0.024425317
9.632242203,1.420701027,0.746392906,7.709049225,-1.67357564,0.051148169
9.613789558,1.291032195,1.343369007,7.613089085,-2.111416817,-0.307959676
9.557142258,1.075940847,2.014312983,7.558130264,-2.104061842,-0.312148303
9.394458771,0.86211735,2.383370638,7.55003643,-1.503314376,-0.017952742
9.37586689,0.86428982,2.246602058,7.596405029,-0.462135524,0.472372562
9.368017197,0.958204329,1.734858155,7.808730602,0.893552661,0.884747326
9.468114853,1.336283326,0.881591439,8.331114769,2.471562862,1.855672836
9.929572105,1.46161449,0.780422926,8.387321472,3.876592875,3.23189497
10.26118851,0.900703251,0.985797703,7.992066383,3.723669767,2.919395447
10.43263912,0.32150349,1.454615951,8.104022026,1.921781778,1.435300708
10.1921587,0.348947108,2.096660376,8.812655449,-3.44352746,1.583986282
9.614242554,0.737111211,2.145842552,9.908811569,-9.171774864,-0.613770604
8.936319351,1.529848337,1.254425049,9.839575768,-10.33375168,-0.67478019
9.276895523,1.976673841,1.334740281,9.60697937,-8.238271713,0.530791819
9.278585434,1.732060194,1.32811892,9.403376579,-7.174293041,1.53371191
9.390184402,1.180543303,1.572746873,9.151234627,-9.403500557,0.859911978
9.571113586,0.430086195,1.463145852,9.618724823,-13.48371124,-0.894820333
9.873207092,0.194447696,2.14439702,10.00130749,-14.64900303,-1.237074494
9.723365784,0.444111794,2.232067823,8.909777641,-11.20299816,-0.345691532
9.783632278,0.579799294,2.005110264,7.429798603,-6.804871559,0.926474154
9.666480064,0.818695068,1.955837727,6.203044891,-3.231773376,0.365478277
9.588774681,1.014570355,2.137670279,7.108790398,-1.853124142,0.118874282
9.502370834,0.624857068,1.869937062,8.053389549,-2.235736609,1.779812336
9.571020126,0.45670709,1.619429111,8.711442947,-3.262548923,1.68933785
9.597543716,0.103357092,1.655905604,9.31906414,-3.237514973,2.528151035
9.85185051,-0.294054866,1.30299449,9.526721001,-2.541291952,3.294122458
10.15002823,-0.265274614,1.544331431,9.979431152,-2.31803894,3.215097427
10.06984425,0.123282,1.896541238,10.32685089,-3.047273397,2.970909357
9.869096756,0.670238733,1.691649318,10.60375214,-3.372378588,2.38310647
9.693782806,0.989422739,1.377078414,10.58528709,-3.039452553,2.496061802
9.737521172,0.934212208,1.141735792,10.25589371,-2.252562046,2.024799347
9.762849808,0.830042422,1.238764882,9.976186752,-1.60962081,1.402700782
9.891709328,0.442007035,1.477522135,9.620605469,-1.233232856,0.772388935
9.835913658,-0.455090821,1.276131511,9.687882423,-1.964589715,0.750915647
10.53646374,-1.059506059,0.55096519,9.720363617,-1.952132344,0.911709964
11.01641273,-2.440554857,0.759321332,9.483868599,-1.099627852,1.281564832
11.79956532,-4.605453968,1.295198202,8.946000099,-0.994473577,1.482239723
12.51186466,-6.652514458,-0.448407054,8.742547035,-2.340176344,1.070702195
13.21744442,-5.937609673,-1.545111775,8.985081673,-3.802799463,0.529954433
13.76477051,-4.472782135,-1.359806538,9.342926979,-3.774245501,0.768206596
13.0785265,-3.248087406,-1.055684566,9.784906387,-2.623316526,1.673485637
12.48944187,-1.456328392,-1.55443275,10.02732277,-1.678459167,2.534530163
11.77245903,0.183300808,-2.778674603,10.54441643,-1.556561828,2.696671486
11.03666782,1.475562811,-2.973550081,10.56032276,-2.054731846,2.209374905
10.36931133,2.289266348,-2.865462542,10.03644466,-2.372959375,1.263930559
10.07585907,3.279875994,-2.959329367,9.778170586,-3.198968887,0.439774245
10.13619137,4.447033882,-3.477018595,9.546571732,-3.373802662,-0.27073133
11.1293354,5.411343098,-2.906969547,9.482858658,-2.986253977,-1.029996634
11.32937813,4.838104248,-1.10485673,9.546308517,-2.988053083,-1.669496894
11.64405537,4.821181297,0.795255065,10.18440151,-2.943009615,-0.428940713
12.48393059,8.3236866,1.475144625,10.62673283,-1.602991462,1.137099028
13.83539391,13.62689686,-0.693656445,11.1681118,-0.32234326,1.871617198
14.13425732,14.27796364,-2.981952429,11.48992825,-0.092675194,2.423400402
13.52102947,10.15994167,-4.110575199,11.28462887,-0.954352856,2.822079182
13.04311371,5.947165966,-4.084527493,10.41115093,-1.712802052,2.06682539
12.55230618,3.255214214,-3.602582216,9.757137299,-2.117629051,1.192635417
12.17498589,1.566566944,-3.805407047,9.493790627,-2.403996944,0.638327003
12.3620472,0.450137228,-4.293010235,9.148011208,-2.579320431,0.111525759
12.30517387,-0.383493632,-4.056331635,9.145700455,-3.211126089,-0.467383146
12.09346581,-0.277422607,-3.820191145,9.524643898,-3.283080578,-1.148201466
12.02694607,0.118773535,-2.97053194,9.646446228,-3.689545393,-1.368893623
11.52030563,0.131842941,-2.073760271,9.959091187,-3.849550486,-1.203038216
10.7504673,0.381235838,-1.608138204,9.819254875,-4.100942135,0.435723096
10.24522495,0.607845128,-1.220052719,9.412315369,-3.647635698,1.942821145
10.06618977,0.657668352,-0.515660048,9.298762321,-2.852890968,2.960958242
9.766576767,0.808905721,0.105852574,9.041470528,-2.369149685,3.343187571
9.316248894,0.807098389,0.618866682,9.215155602,-2.777980804,2.662929535
8.628603935,0.545950115,1.088362575,9.472174644,-3.017627716,1.323208809
7.756586075,0.242093444,1.571630955,9.147257805,-3.544018269,-0.215876162
7.238722324,0.013389108,2.256750107,8.848404884,-3.982511997,-1.146472216
7.373330116,-0.058237609,3.049619675,8.539611816,-4.162092686,-1.771120906
7.67203474,0.345569342,3.616396189,8.614804268,-5.037960529,-1.999083757
7.92305994,0.876914084,3.547736406,8.654702187,-5.530050755,-1.687579393
7.832073689,1.064844966,3.256806612,8.374322891,-5.31687212,-1.221236467
7.447529316,0.91966188,3.098171473,8.429614067,-4.751110077,-0.793008208
7.540374279,0.710021973,3.752209902,8.606437683,-4.084294319,-0.062361605
8.265090942,0.67729944,4.922239304,8.864965439,-2.773516417,0.82948333
9.186250687,0.803536892,5.937112331,9.152199745,-2.333077908,1.681638122
9.851287842,0.751561344,6.422934055,9.319279671,-3.092624426,1.880781531
10.15919495,0.255905181,6.237442017,9.191222191,-3.738119125,1.574068308
10.40687656,-0.467257857,5.790734768,9.116099358,-3.760499477,1.375750065
10.64311409,-0.992800295,5.300405025,9.134058952,-3.081423521,1.259370327
10.80875111,-1.120885611,4.847984791,9.440685272,-3.371227741,0.79595083
10.74716377,-0.992274463,4.445209026,9.646419525,-3.759705544,0.593561411
10.65683556,-0.817256391,4.543156624,9.343075752,-3.818199635,0.350592703
10.70101547,-0.523876846,4.760324001,9.036323547,-3.672235727,0.227037579
10.97805977,0.02587362,4.891278267,9.097389221,-3.714556932,0.132011175
11.3059845,0.699613094,4.806193352,9.154099464,-4.112310886,-0.093022712
11.48150635,1.233656168,4.585181713,9.134541512,-4.333420277,-0.301629305
11.40620518,1.434226632,4.222327709,8.932889938,-4.268613815,-1.03391552
10.95583725,1.236485362,3.770513058,9.094779015,-4.113555431,-1.661859274
10.48871899,0.769216537,3.359081745,9.441737175,-3.837058306,-2.237933874
10.11116982,0.358820707,2.913016081,9.677562714,-3.593682766,-2.122343063
9.80340004,0.140176177,2.508988857,9.242338181,-4.377290726,-0.901382744
9.596201897,0.150079533,2.362152576,8.83014679,-4.686052322,-0.372071415
9.685040474,0.343674392,2.369720697,8.404009819,-4.690418243,-0.162605971
10.04225349,0.82869333,2.323045254,8.040555,-5.069387436,-0.159320951
10.39680195,1.378059983,2.218476534,8.026222229,-5.296161175,-0.475120306
10.57842827,1.774041295,2.03594327,8.068583488,-5.228894711,-1.155268192
10.52246284,2.096900463,1.816104889,8.320824623,-5.271936417,-1.749282837
10.35048485,2.309254169,1.53645432,8.516928673,-4.505473614,-1.898979783
10.06717682,2.289018869,1.322495103,8.690649033,-4.08475399,-1.774691701
9.842578888,2.088979244,1.050280571,8.807673454,-4.027739048,-1.055401921
9.674079895,1.79919219,0.810970187,9.080780983,-4.00194931,-0.587679267
9.547784805,1.442385912,0.697502255,9.21245575,-3.492178202,-0.086449482
9.48879528,1.186839461,0.547041178,9.2200737,-3.26291728,0.318493813
9.484204292,1.04928863,0.383903146,8.97922802,-3.272906542,0.919862211
9.636498451,0.952685595,0.311125547,8.88571167,-2.799914837,1.125812292
10.16495419,1.079919219,0.252428234,9.272024155,-1.906787753,1.303320646
10.77386284,1.622329116,0.278715849,9.841300011,-1.464766026,1.474244356
11.09243393,2.276812553,0.377101362,9.823722839,-1.998452544,1.641875625
11.0304203,2.803650379,0.482688159,9.574280739,-2.622237444,1.372259021
10.69070339,3.035067558,0.625162005,9.393989563,-2.965874195,0.742511213
10.18596935,2.963224411,0.563510418,9.482009888,-3.268574715,-0.047252502
9.867168427,2.575071812,0.411880046,9.69423008,-3.083483219,-0.564479351
9.619763374,2.070356369,0.146126971,9.99125576,-2.750694275,-0.547250032
9.411108017,1.621744394,-0.164589599,10.06808949,-2.534756422,-0.17072764
9.34046936,1.376685977,-0.515316188,9.61180687,-2.726757526,0.674829483
9.438360214,1.313517094,-0.754611015,8.930884361,-3.269002438,1.440847278
9.726839066,1.535570741,-1.009678006,8.305047989,-3.535776138,1.487802029
10.14471436,2.007262707,-1.212819099,8.070754051,-3.734469891,1.274826884
10.51486969,2.489581823,-1.273157239,7.808562756,-4.114559174,0.967834592
10.62620449,2.993461609,-1.322438359,8.187072754,-3.928133726,0.538421392
10.50042534,3.444328547,-1.17485261,8.875548363,-3.408665419,0.121279456
10.07300568,3.951601267,-1.266850233,9.478540421,-2.776731491,-0.061562762
10.02959919,4.031692505,-1.437865734,10.03575325,-2.228702545,0.081491858
9.769688606,3.635675669,-1.307775021,10.47295761,-1.954804659,0.072203875
9.528589249,3.154504538,-1.400247216,10.50139523,-1.889523268,0.099762388
9.546387672,2.976768255,-1.573895097,10.15539265,-2.179726124,0.055382829
9.670927048,3.140854597,-1.707881212,9.717722893,-2.366145134,0.091486685
9.987571716,3.335320473,-1.706152201,9.39191246,-2.615326405,0.111102931
10.2724638,3.370491266,-1.640383363,9.167180061,-2.887573957,0.277161002
10.30215836,3.180607557,-1.533588886,9.022053719,-3.00403285,0.217555106
10.05202579,2.97813201,-1.420385242,9.059156418,-2.997144699,0.17234093
9.690954208,2.820588589,-1.366334438,9.260346413,-2.786371946,0.183157831
9.396614075,2.630540371,-1.35809803,9.561155319,-2.419992924,0.315555245
9.220193863,2.428387642,-1.321250439,9.92976284,-2.119539022,0.314255267
9.246779442,2.295503855,-1.297095418,10.10519218,-1.800084829,0.572830439
9.385422707,2.325273037,-1.264344335,10.04342556,-1.421952844,1.184880972
9.537259102,2.450230598,-1.317187548,9.739750862,-1.729433775,1.399717569
9.730352402,2.493180513,-1.384490252,9.408443451,-2.263601065,1.564787745
9.858628273,2.386872292,-1.547018528,9.142926216,-2.719269276,1.374981165
9.905715942,2.27444005,-1.640061259,8.967337608,-3.149412632,1.087047338
9.701889038,2.293164968,-1.633123994,8.872376442,-3.242770672,0.652105272
9.455595016,2.427013159,-1.522301078,8.871101379,-3.477412224,-0.077414908
9.452517509,2.605639935,-1.468696356,9.203385353,-3.203343153,-0.749366879
9.507203102,2.872575998,-1.534689546,9.56062603,-2.903926849,-0.698845208
9.597681046,3.026713848,-1.50006628,9.789372444,-2.534310818,-0.620069921
9.518265724,3.026823997,-1.45107305,9.869776726,-2.283214331,-0.624916434
9.613021851,2.738717318,-1.472316265,10.18313217,-1.987547278,-0.474027693
9.554567337,2.611569643,-1.405373931,10.07060528,-2.227291346,-0.031496912
9.431056023,2.910107136,-1.348885417,9.720604897,-2.379355669,0.173062176
9.334270477,3.14064765,-1.329720259,9.250153542,-2.620426178,0.205454379
9.413948059,3.026521921,-1.300377011,9.463407516,-2.349661827,-0.011658201
9.159804344,3.211602926,-1.288979411,9.435541153,-2.463577032,-0.115174294
9.110712051,3.216747046,-1.235516906,9.443464279,-2.586807013,-0.225988984
9.090493202,3.164922476,-1.251052618,9.484238625,-2.316335201,-0.195492551
9.133907318,3.171626806,-1.248004079,9.447900772,-2.276755333,-0.045325965
9.023644447,3.315438271,-1.188534379,9.254893303,-2.42931056,0.465995103
9.174287796,3.416326284,-1.196463704,9.027117729,-2.305777073,1.126644015
9.423142433,3.457294226,-1.303881884,9.338143349,-1.983605623,1.15643084
9.350716591,3.416800976,-1.294228554,9.441143036,-1.932091475,1.375890255
9.431568146,3.214957714,-1.429965019,9.778082848,-1.910318732,1.101166844
9.384706497,3.313516855,-1.483795643,9.916831017,-1.600717068,1.151332974
9.228793144,3.548303604,-1.454904914,10.02013779,-1.523834705,0.610711277
9.1058321,3.456693172,-1.395368099,9.791984558,-1.882435799,-0.091058679
9.154430389,3.266648531,-1.485393524,10.15918827,-1.596474767,-0.603576064
8.848071098,3.66184926,-1.357519627,9.734539032,-2.005147696,-0.9622522
9.125007629,3.88232851,-1.351259589,9.322094917,-2.383624792,-0.984979391
9.253661156,4.327929497,-1.183676243,9.175146103,-3.177907705,-0.822722316
9.051527977,4.036662102,-1.195045352,9.137145996,-2.936112404,-0.21786204
9.070766449,4.622788429,-1.307540536,8.755327225,-3.208266735,0.340756953
9.12462616,4.020471573,-1.572704554,9.019842148,-2.296540499,0.32798624
9.384306908,3.515744209,-1.62328136,9.541576385,-1.648225427,0.497193217
9.258854866,3.324785709,-1.725434661,9.924084663,-1.532963395,0.638722003
9.244355202,3.590556145,-1.462925076,9.923955917,-0.926636338,0.852918923
9.321187019,4.073808193,-1.223136544,10.10013771,-1.213006735,0.912721753
9.063905716,4.384972095,-0.915746272,9.920393944,-1.274287462,1.00975132
8.998553276,4.507736206,-0.88492018,9.633264542,-1.734154701,0.831802249
8.89179039,4.202370644,-0.957670331,9.41708374,-2.094302177,0.435049593
8.782156944,3.942024469,-1.084739327,9.185722351,-2.21853447,0.361954689
8.843384743,3.792557955,-1.208620667,9.082317352,-2.410809994,0.360770017
8.869890213,3.729787111,-1.345463753,9.130114555,-2.292480707,0.755284429
8.862766266,3.850744247,-1.403468013,9.270867348,-1.972200036,0.716429114
8.78405571,4.168020248,-1.415022731,9.625580788,-1.542327762,0.916422367
8.692175865,4.509604931,-1.442362785,9.852171898,-1.487147689,1.028248549
8.65249157,4.68948698,-1.344514847,9.923718452,-1.352837443,1.278869867
8.713740349,4.748384953,-1.171720266,9.988379478,-1.073452234,1.094723225
8.736419678,4.706602097,-0.935992599,10.12783146,-0.912833035,1.059696674
8.656996727,4.664161682,-0.716906071,10.05846024,-1.091838956,0.982571423
8.686302185,4.7471385,-0.879729807,9.673558235,-1.511314511,0.755597413
8.99468708,4.684197903,-0.913973033,9.354909897,-2.097664833,0.570329845
8.945113182,4.479172707,-0.913947701,8.992912292,-2.909183502,0.293930799
8.797124863,4.448474407,-0.972840846,8.849417686,-3.445086241,0.239820525
8.692229271,4.604943275,-0.970245063,9.004515648,-3.011151314,1.142708063
8.692116737,4.707238197,-1.047827482,9.338612556,-2.107491732,1.749950171
8.685153008,4.645454407,-1.079638362,9.720348358,-1.523894072,2.492067099
8.672637939,4.616533756,-1.186602831,9.802355766,-0.928424895,2.961851835
8.624285698,4.632959843,-1.340071559,9.925490379,-0.222193748,2.871922493
8.633105278,4.701686382,-1.319413662,10.17294121,-0.338919133,2.725453138
8.59745121,4.892580032,-1.265277147,10.16269016,-0.803009152,2.600449085
8.513476372,5.064153194,-1.08460629,9.917613029,-1.129392743,2.686900616
8.339177132,5.249206066,-0.944078743,9.462356567,-1.52397871,2.548766851
8.215928078,5.356634617,-0.87804085,9.191991806,-1.50612545,2.787464142
8.254989624,5.321017265,-0.961982548,8.860630035,-1.476608992,2.146918535
8.303954124,5.284064293,-1.218065619,9.092113495,-1.825380564,1.345794439
8.362082481,5.204827309,-1.419884324,9.317245483,-2.198429346,1.256747246
8.357197762,5.228420734,-1.6351825,9.43612957,-2.217381239,1.248363614
8.239836693,5.424615383,-1.728577614,9.646484375,-2.318381548,1.743515491
8.12567234,5.696499825,-1.812453032,9.628822327,-1.989761949,1.780047059
8.106632233,5.871453762,-1.882698655,9.557264328,-2.470799446,1.60668838
8.174474716,5.973232746,-1.899062872,9.438586235,-2.748609066,1.477651834
8.353582382,5.844297409,-1.927008271,9.075634956,-1.865543842,1.3586303
7.988704681,5.965070248,-1.859048367,9.306652069,-0.967254162,0.451226711
8.128959656,6.162965775,-2.080611944,9.648961067,-1.20470047,-0.457485855
7.946460247,6.19824028,-1.994597077,9.955046654,-1.886424184,-1.058086157
7.788131714,6.092900276,-2.127040386,9.6189394,-2.515235901,-1.283926487
7.643725872,6.041527271,-2.108273983,8.941618919,-3.325034618,-1.722855806
7.616099358,6.025948524,-2.26899147,8.724817276,-3.679356813,-2.020231724
7.637499809,6.028476715,-2.449469328,9.035243988,-3.791055202,-2.152678728
7.794323444,6.087063789,-2.554067135,9.482794762,-3.091452837,-1.126820922
7.966798782,6.183407784,-2.517618895,9.937887192,-1.664231658,-0.037669044
7.981658459,6.273963451,-2.502956629,10.16113663,-1.075149894,1.0516541
7.826323509,6.405387878,-2.457639456,10.02631569,-0.868125319,1.439388871
7.65147543,6.54902935,-2.373330832,9.790393829,-1.180073977,1.166923881
7.590607166,6.681074619,-2.360100746,9.622467041,-1.775122523,0.795094848
7.59270668,6.748237133,-2.210424185,9.438083649,-2.558469772,0.471199274
7.513881683,6.597488403,-2.085752726,9.408836365,-2.347339392,0.053014632
7.55274868,6.368104935,-2.033872604,9.433127403,-2.305028915,-0.526512921
7.673057556,6.038734913,-2.020569801,9.422730446,-2.437548399,-0.928180635
7.701030254,5.877084732,-2.281682014,9.456374168,-2.539345026,-1.258520603
7.878070831,5.63725996,-2.26672411,9.44794178,-2.849607468,-1.125971913
7.816943169,5.444020271,-2.47331214,9.525105476,-2.659959555,-0.639946461
7.842339039,5.442869186,-2.710317135,9.631832123,-2.232455492,0.126709074
7.85267067,5.44092083,-2.823958874,9.688009262,-1.88979435,0.749892235
7.757143974,5.363609791,-2.723729849,9.725647926,-1.410336137,0.676483512
7.691099167,5.22862339,-2.58561492,9.76981926,-1.366503477,0.154845938
7.754848957,5.203023911,-2.455739975,9.860754967,-1.520947218,-0.505779386
7.989744663,5.276032925,-2.437809944,9.83393383,-1.841218829,-0.852603495
8.19970417,5.277471066,-2.416358232,9.768360138,-2.234922886,-1.005771041
8.265618324,5.141048431,-2.239425898,9.569770813,-2.68838048,-0.796772718
8.391503334,5.015760422,-1.873134851,9.444236755,-2.610790253,-0.122569792
8.590921402,4.99285984,-1.501324534,9.530946732,-1.997939467,1.025707603
8.816531181,5.038631916,-1.128910184,9.574252129,-1.37807858,1.879077077
9.017457008,4.67237854,-0.92928946,9.598043442,-1.142357111,2.064818144
8.703425407,4.454446316,-1.159981847,9.504081726,-1.600542307,1.150521159
8.790153503,4.350184917,-1.367146254,9.199754715,-2.64217329,-0.125353426
8.930257797,4.299072266,-1.836472392,9.147112846,-3.330152035,-0.735371172
9.167955399,4.226202965,-2.038478374,9.02875042,-3.547268867,-0.763120532
9.181620598,4.081458092,-1.896383882,9.110413551,-3.119794846,-0.353215843
9.216686249,4.115887165,-1.786435604,9.230065346,-2.467573166,0.046301983
9.039708138,4.204511642,-1.519842267,9.420322418,-2.363306761,0.298683137
8.862064362,4.279197693,-1.187906504,9.548130989,-2.248473167,0.662706256
8.718452454,4.230528355,-1.002649546,9.601345062,-1.964606881,0.808485806
8.851649284,4.01012373,-0.899324894,9.501972198,-2.04703021,1.169152975
8.923287392,3.635020733,-0.542746842,9.223414421,-2.154193878,1.406699419
9.018774033,3.479995251,-1.030172586,9.069779396,-1.969940305,1.277433753
9.407867432,3.667105913,-1.484511852,9.226807594,-1.868049979,0.880597949
9.334794998,3.991945982,-1.689013362,9.465542793,-1.958473444,0.526058257
9.126266479,4.231230736,-1.66942358,9.569962502,-2.138189077,0.139615312
8.696619034,4.304109097,-1.215055227,9.602249146,-2.270670652,-0.171056628
8.192957878,4.166386127,-0.558415592,9.664635658,-2.289148092,-0.263587266
7.966680527,4.094871521,0.100028433,9.556045532,-2.18266511,0.029556382
7.944220066,4.214151859,0.346090585,9.346675873,-2.131146908,0.187663674
8.266597748,4.316681385,0.623916626,9.12443924,-2.310637951,-0.181190953
8.484084129,4.23257637,0.391404182,9.015366554,-2.699696779,-0.646514595
8.567831993,3.907750368,-0.016681949,9.210878372,-2.498111486,-0.287804574
8.401386261,3.751347303,-0.354018688,9.770482063,-1.03028965,0.910022497
8.405674934,3.524704456,-0.430808187,9.946195602,-0.508960605,1.826845288
8.573016167,3.334655762,-0.104804471,9.97660923,-0.281514138,1.881195068
8.642782211,3.305971861,0.599037409,10.00305557,-0.418234289,1.429740906
8.512729645,3.314900637,0.923711777,9.991089821,-1.126560092,0.734154105
8.223678589,2.889791012,1.049905539,9.671807289,-1.816071749,0.29599601
7.636401176,1.85542047,1.195548177,9.233680725,-2.313811302,-0.305307478
7.233746052,0.476514965,1.091634989,8.852131844,-2.665131569,-0.607176304
6.979008675,-0.724992275,0.728191912,8.89266777,-2.308531284,-0.483398557
6.964719296,-1.223081231,0.154644191,9.225588799,-1.499780774,0.170664728
7.578324795,0.364759356,-0.719362319,9.588618279,-0.793093622,0.932977736
9.011466026,2.654272556,-1.002175212,9.851823807,-0.248249277,1.279898524
9.484037399,3.402750015,-0.291887224,9.916833878,-0.260122716,1.025070071
9.075170517,2.784075975,-0.251203656,10.0199213,-0.507371008,0.695777714
9.134468079,3.032264948,-0.22296007,10.11162281,-0.394958675,0.777028322
9.044715881,4.227436066,-0.022765629,10.03287029,-0.118541144,0.876073718
8.939210892,5.056866646,0.27772525,9.808713913,-0.245701194,0.543847919
8.808576584,5.211403847,0.381989002,9.718568802,-0.427157223,0.236179456
8.954416275,5.261819839,0.343689352,9.780976295,-0.56114924,0.252839416
8.917916298,5.314874172,0.318764418,9.772854805,-0.46212548,0.241745353
8.880093575,5.015415668,0.258401543,9.665283203,-0.434042275,0.137134641
8.954857826,4.954745293,0.345234185,9.63626194,-0.577006519,0.059090909
8.98638916,5.407703876,0.398722112,9.710144997,-0.344319522,0.725273848
9.047359467,6.156266212,0.246888608,9.629102707,0.144352868,1.196650505
9.115218163,6.465906143,0.075261272,9.554427147,0.214048162,0.891480148
9.216351509,6.714987755,-0.097969629,9.640398026,0.266595542,0.621722162
8.990261078,6.770169258,-0.124653734,9.708057404,0.354990244,0.283023417
8.695043564,6.20081377,0.030026164,9.695988655,0.363261491,-0.177305639
8.592437744,4.969841003,0.911595047,9.75850296,0.429897338,-0.525881171
8.427466393,4.168692589,1.275460124,9.612202644,0.581256628,-0.681230128
8.396294594,4.090226173,1.143648267,9.61568737,0.515406251,-0.61001122
8.763705254,4.22800827,0.607129216,9.455693245,0.275236696,-0.956531227
9.006302834,3.285278559,0.576147437,9.601576805,0.967607677,-0.333623439
9.013745308,1.653965354,0.466120839,9.557225227,0.925172687,0.593017876
9.541697502,0.526701212,0.052214585,9.210006714,0.845747232,0.784311414
9.799897194,-0.100136057,1.091093183,9.226335526,0.684727132,0.044507146
10.08269882,0.640882552,1.66557467,9.456898689,0.577789128,-0.912107706
9.57498455,1.927958131,0.542340338,9.715420723,0.027221933,-1.604002237
10.10961151,1.765780807,-0.491313338,9.810372353,-0.357592642,-2.118331671
10.50384045,0.91221863,-0.455437958,9.838280678,-0.83768481,-2.391346216
11.05773067,0.430286437,0.290126383,9.532520294,-0.714022934,-2.685376644
11.76456547,0.70459336,1.664334059,9.43559742,-0.796518803,-2.940049171
12.00664425,1.964559317,2.154318094,9.637931824,-1.201512337,-3.511554956
11.33500099,2.455455303,1.777942777,10.40947723,-2.423740625,-4.2870574
9.808279037,2.136502266,0.322916061,10.71325302,-1.692693949,-4.97367382
8.945818901,2.238168716,-0.862622619,11.41909599,-2.061666727,-3.336480618
9.053536415,4.365746975,-1.285982847,12.56651306,-5.729211807,-1.598837852
8.994576454,5.829449177,-1.085225701,14.06389427,-5.577288628,0.279436916
8.638831139,5.24281311,-0.947064281,14.93173695,-3.932260752,2.427457094
8.500403404,4.970025539,-0.506936312,15.06352806,-2.696223259,3.370468616
8.658772469,5.355357647,0.317994893,14.14530373,2.922999144,4.497817993
8.919799805,4.551900387,1.128764868,16.10654068,9.2417593,8.273645401
9.211047173,3.455310345,1.753754497,15.64442062,8.083475113,6.155940056
9.612524033,2.549067497,1.76873827,15.10621166,-3.102182865,0.469021767
10.11312103,1.731268048,1.424071908,13.19150543,-11.74237442,-2.788573742
10.62870693,0.885650933,1.077753901,14.66826916,-5.601113796,-1.417327046
10.81319141,0.472413093,0.753806174,14.07231712,-4.30881691,-0.621074617
10.65108109,0.69915396,0.356260419,12.78842545,-2.471313,-0.179556116
10.5389986,1.39086473,0.412980914,12.4701004,-0.993272901,-0.793251574
10.4578619,1.552647471,0.861146927,12.07351398,-1.166345596,-1.245660305
10.16757011,0.987720966,1.140680909,11.47959614,-1.957503319,-1.698257685
10.16705036,0.775086999,1.231255651,10.84299088,-2.944714308,-2.413598299
10.42454147,0.665942371,1.264551163,9.76653862,-3.304872274,-2.911668062
10.46644497,0.478333354,0.966398716,8.91602993,-2.733661652,-3.547560453
10.09058571,0.719462395,-0.549545646,8.554013252,-2.133382797,-3.50663662
9.996051788,1.819071651,-1.016355038,8.408665657,-2.078780413,-3.102771521
9.73246479,1.42012012,-0.64702177,7.993280411,-2.060909748,-2.629019737
9.676036835,1.705365777,-0.415366501,7.179894924,-1.657923102,-2.476005793
9.625986099,1.351647973,-0.338327885,6.88131237,-1.40963161,-2.720315456
9.490525246,1.251083732,-0.359800875,6.618707657,-1.821365118,-2.282096863
9.501787186,1.623183131,0.014868444,6.579779148,-2.126444817,-1.465066791
9.585913658,1.248929501,0.372740299,6.849394321,-2.292531967,-0.550607383
9.77352047,0.751397073,0.776112556,7.244152546,-2.602979183,0.396636128
9.876691818,0.154773533,0.899750173,7.342486858,-2.786441088,1.237107277
9.973621368,0.268194675,0.890916765,7.063225269,-2.452217579,1.549340367
9.878396988,0.851249218,0.601514995,6.940450191,-1.583118081,1.418287039
9.578248978,1.615619063,0.020421591,7.184148312,-0.67683357,1.088672996
9.366984367,2.136779547,-0.428096503,7.45441246,0.057902038,0.615272164
9.293546677,2.144341469,-0.525330722,7.589249611,0.231454626,0.412867099
9.254159927,1.740780234,-0.37766543,7.953373909,0.123456761,0.206525132
9.285475731,1.180327535,0.098070197,8.674206734,-0.201854482,0.244218931
9.520244598,1.072502494,0.38120082,9.514612198,-0.794864118,0.880507052
9.661618233,1.383857369,0.575918376,10.00681973,-1.279777408,1.649874568
9.727749825,1.319245577,0.347986788,10.02896309,-1.00019455,2.046931982
10.01754665,0.926241517,0.210208297,9.794959068,0.258219123,1.907356262
10.55117702,0.08611428,0.229796901,9.824417114,1.797950864,1.681890607
10.58047771,-0.190413177,-0.036618181,9.94869709,2.628537178,2.015676498
10.39738369,0.03418782,-0.664532125,9.836495399,3.027246952,2.473386765
10.46040916,0.131669685,-0.676548302,9.691226006,3.183948517,2.719786167
10.42056656,0.173736259,-0.331927806,9.910189629,3.348118544,2.668345213
9.955281258,0.502959609,0.026668385,11.2083931,3.286165953,2.584378719
9.339583397,1.019969225,0.358870745,12.67033958,2.382363319,2.809027433
9.555973053,0.957269549,0.539054453,12.8769598,1.535283566,2.800905943
9.851325989,0.746738732,0.952303231,12.42318916,0.877523899,2.202052116
9.857286453,0.423856378,1.355960131,11.77213573,0.438804865,1.551204562
9.898376465,0.043776955,1.151680946,11.00143528,0.29664284,1.214862704
9.990264893,0.030720381,0.459052682,10.36602592,0.427730471,1.0925771
9.985970497,0.376385957,-0.129929334,9.743800163,0.772823453,1.207287073
9.70335865,0.861346722,-0.332977623,9.650444031,1.409850717,1.420000911
9.332133293,1.696683288,0.042704232,11.10710526,1.556328535,2.302571297
9.40028286,1.81885612,0.728844166,12.20226765,1.085555196,3.316553116
9.872796059,1.020907998,1.157302022,12.22495556,0.899529636,3.283332109
10.39165878,0.76977849,1.125867486,12.03579235,0.984535992,2.528201342
10.35518456,1.196179152,1.316238642,11.81313992,1.117549777,2.006165743
10.09278679,1.268806696,1.156301618,11.36909962,1.077707291,1.728608012
9.733046532,0.896561742,0.626353979,10.81007481,0.836850405,1.540214658
9.45232296,1.272604585,-0.187410235,9.92813015,0.64950484,1.366913319
9.564433098,2.064787626,-0.912103117,9.328649521,0.856316745,0.966913998
9.534276962,1.851704478,-1.463445902,9.437701225,1.028789997,0.609045327
9.619029999,1.406464219,-1.156801939,9.940443039,0.854240119,0.358323574
9.872166634,1.178399444,-0.466225237,10.42452049,0.56539315,0.170487151
10.0039196,0.823878706,-0.038964666,10.93006516,0.439780086,0.191885844
9.942007065,1.118085861,0.28491056,11.3360796,0.476575881,0.494787753
9.535833359,2.635803461,-0.367221236,11.57314968,0.514131367,0.728636801
9.335556984,2.920387745,-0.903217971,11.56928253,0.241769567,0.783521652
9.150547981,3.386792421,-1.914839506,11.16930199,-0.266133934,0.614120901
9.3695364,3.729689598,-2.519278288,10.79658794,-0.833081484,0.239810243
9.563878059,3.517042398,-2.667607307,10.57894993,-0.956185579,-0.185322896
9.644316673,3.287084579,-2.728982925,10.46026134,-0.62233448,-0.498894125
9.806159973,2.792936563,-2.900763273,10.35659599,-0.159808204,-0.486675024
9.857648849,2.516549587,-3.285461426,10.39837265,0.092559882,-0.281748503
9.922423363,2.380795956,-2.688720942,10.88668442,-0.244957924,0.035704564
9.44671154,2.569789886,-2.189864635,11.1909523,0.392776608,0.007687628
9.26674366,2.555883646,-1.887450814,11.03102303,1.103837848,0.098709665
9.634175301,2.405382156,-1.727404237,10.55504894,0.374738157,-0.643831551
9.778388977,2.180915117,-1.158518314,10.40490818,-0.500024855,-1.320990205
9.681025505,1.995520234,-0.828509331,10.2422514,-1.074479818,-1.285181403
9.746491432,1.807350636,-0.638370931,9.751550674,-1.485764146,-1.268247128
9.642375946,1.700559258,-0.626338899,9.456903458,-2.029833317,-1.734632254
9.881183624,0.931809127,-0.433956802,9.420953751,-2.363946915,-2.134895325
9.541791916,0.687447488,-0.355834574,9.60285759,-2.420703411,-2.294636011
9.469976425,1.633443952,-1.114069104,9.745850563,-2.30500555,-2.258051395
9.514846802,1.958833694,-1.551814556,9.808567047,-2.28560257,-2.276065111
9.442389488,1.969229341,-1.326133847,9.751064301,-1.568349481,-2.020514011
9.650569916,1.992590666,-0.962175965,9.820270538,-1.023433328,-1.740292549
9.76521492,1.288641453,-0.795704842,9.852005005,-0.802572489,-1.700344443
9.977947235,0.803641796,-0.13933441,9.7992239,-1.061663032,-1.668563247
10.04070187,0.628476679,0.230950564,9.888913155,-0.387834013,-1.575929761
10.08980656,1.786967993,0.080805659,9.878557205,-0.758857787,-1.62495482
10.05392838,1.53609395,0.396688044,9.88087368,-2.189175844,-1.806591511
9.383930206,0.944089174,0.296628177,9.646923065,-2.33932209,-1.663706183
9.792010307,1.731766343,0.137152284,9.884853363,-1.7342695,-1.52270937
9.646656036,1.739649415,-0.483504266,10.08201694,-1.685454726,-1.237022996
9.750784874,1.309649944,-0.92538327,9.986973763,-1.46100378,-1.052650094
10.27219009,1.325876594,-1.180278063,10.09247494,-0.958358288,-1.225360513
10.15075779,1.63497746,-0.605667651,9.94129467,-1.772798777,-1.601270676
9.845042229,1.275024295,-0.366342932,9.791183472,-1.381178617,-1.252068162
10.20438671,1.316122651,-0.567437291,9.724951744,-2.314503908,-1.516404629
10.18346405,0.441259086,-0.277770221,9.854990005,-2.375268221,-1.646265864
9.97793293,0.965845525,0.115616627,9.721560478,-2.600149632,-1.919606328
9.894405365,0.140490264,0.138908744,9.980218887,-1.577269793,-1.767791271
9.926211357,1.748734355,0.489435315,10.02849483,-1.042919397,-1.607259035
9.842981339,1.596660495,0.456431985,9.808946609,-2.131841421,-1.543183565
9.590071678,0.684763312,0.458908528,9.817000389,-1.320064425,-1.120851517
9.994556427,2.10774684,0.152358264,9.726793289,-1.391625881,-0.871169209
9.691132545,1.392704129,0.007440807,9.649786949,-0.782272637,-0.672503352
9.750635147,2.07860136,0.072363839,9.691299438,-0.104550809,-0.389630586
9.761423111,2.633474112,-0.008559288,9.654260635,-0.056446973,-0.516717196
9.431485176,1.821308136,0.255312175,9.427668571,0.105416216,0.365602732
9.602585793,2.852431059,0.085108094,9.243672371,-0.900560379,-0.881940246
9.1067276,0.38416177,0.547825992,9.230041504,-1.510686159,-1.078595281
9.700710297,0.536080241,0.57729125,9.442032814,-1.783872366,-1.102805734
9.667165756,1.156334281,0.593599498,8.976547241,-2.93059516,-2.308306932
9.772750854,0.431104809,0.207739517,9.299255371,-4.445977211,-3.80484724
9.483940125,0.910687268,-0.042515103,8.454561234,-5.996632099,-5.680978775
9.44625473,1.156921029,-1.581401587,8.618803978,-8.33261013,-8.955815315
9.975689888,2.253917217,-0.193889096,10.30295563,-5.007257462,-4.736954689
9.620366096,3.289591312,0.647998393,10.07235432,-1.936954498,-1.172896147
9.512348175,0.96696955,0.308790892,9.065513611,-1.291158915,-0.694068551
9.802674294,-0.66364485,0.544050753,9.009636879,-1.333050966,-0.958962917
10.04674339,-0.024827752,1.065855861,9.063984871,-2.430993795,-1.7197721
10.21639919,0.629733801,0.910936177,9.432143211,-2.748779297,-2.306413412
10.00441933,1.699665666,0.897583783,9.442915916,-2.771993399,-2.436738968
9.730647087,2.101826668,0.890648961,9.336931229,-2.390925169,-1.994900465
9.45119381,1.892760634,0.681856751,9.2153368,-1.83836925,-1.443389893
9.346027374,1.315579534,0.438918054,9.228778839,-1.526952147,-1.128545046
9.367050171,1.046273351,0.356582165,9.203803062,-1.62961781,-1.168828249
9.471204758,1.108822346,0.391677439,9.206852913,-1.854795456,-1.237917781
9.547979355,1.198087335,0.395340234,9.258054733,-1.924682856,-1.322967529
9.622353554,1.265760183,0.467883408,9.305585861,-2.065901041,-1.453094959
9.597875595,1.374908924,0.666340411,9.173204422,-2.281968594,-1.529398322
9.483237267,1.738912821,0.750765085,9.051602364,-2.563751936,-1.642139196
9.374212265,1.931795478,0.837192357,9.107837677,-2.606229067,-1.836966634
9.41165638,1.941104889,1.035944581,9.148682594,-2.592837811,-1.91407311
9.483726501,1.874237657,1.032884002,9.410488129,-2.506897449,-1.838437557
9.61812973,1.654198527,0.950464904,9.475361824,-2.357287407,-1.662634492
9.773612022,1.548743367,0.980989099,9.540431023,-2.334492445,-1.579732656
9.811058044,1.45166707,0.86404568,9.494962692,-2.17499733,-1.464750767
9.845087051,1.260840774,0.731472492,10.47174644,-1.025520325,-1.665175319
10.14346218,1.033042312,0.644896686,8.518918037,-3.185994864,-1.140085816
9.318131447,1.542951584,0.371235907,9.340215683,-2.285251856,-1.400828004
9.662021637,1.365184784,0.33888045,9.457135201,-2.092318296,-1.419284821
9.80673027,1.225032091,0.855537295,9.389975548,-2.077546358,-1.520819902
9.761091232,1.326732397,0.856288731,10.49124718,-1.062973142,-1.974009037
10.18338776,1.117910385,0.957170069,8.632312775,-3.321816206,-1.097630143
9.452129364,1.420280695,0.887626588,9.673996925,-2.261879206,-1.647895932
9.91711235,1.52227056,0.698270917,9.679207802,-2.250542879,-1.534292221
9.803678513,1.092577457,0.663981795,9.628699303,-2.352116823,-1.436857581
9.770521164,1.397930622,0.494484425,9.528079987,-2.421533823,-1.332201481
9.722178459,1.462135196,0.308780104,9.493255615,-2.429126263,-1.168574214
9.759103775,1.38981545,0.069745414,9.471783638,-2.342116356,-1.144105315
9.814073563,1.304490089,0.192829475,9.537628174,-2.368926525,-1.38749671
9.87477684,1.311205864,0.738523602,9.47064209,-2.348121643,-1.576409578
9.843390465,1.283550501,1.119449258,9.499321938,-2.33749032,-1.682484984
10.00723362,1.339790106,1.317185163,9.485626221,-2.532892227,-1.80852139
9.874097824,1.618360162,1.359587073,10.00103092,-1.661793351,-2.42816329
9.896697044,1.611468554,1.477207184,8.556527138,-3.734757185,-1.628440499
9.113864899,1.990599036,1.335178494,9.011825562,-3.195710897,-2.320371151
9.320086479,2.166632891,1.356508374,8.931734085,-2.819833755,-2.154338837
9.303425789,1.908749104,1.137631536,8.914423943,-2.78686142,-2.010318756
9.296953201,1.823656082,0.951823711,8.95900631,-2.747042418,-1.812964678
9.357671738,1.745671272,0.868038535,9.048942566,-2.781938076,-1.71068871
9.491923332,1.72015655,0.817139506,9.149270058,-2.772334576,-1.731662869
9.585625648,1.686733723,0.961028993,9.275755882,-2.68384409,-1.752577186
9.721295357,1.510330439,1.07534337,9.485225677,-2.479729891,-1.821732521
9.940635681,1.272725582,1.244856238,9.569290161,-2.364302874,-1.901837468
10.06693077,1.112563968,1.348994255,9.638442039,-2.353397846,-1.866500139
10.09389496,1.218834043,1.260065317,10.12962246,-1.172103643,-1.960669398
10.30067635,0.242116392,1.275975585,9.042488098,-3.447434902,-1.908692718
9.667294502,1.977999926,1.097698927,9.467576981,-2.790126324,-1.938415289
9.838977814,2.299052954,0.667899251,9.280974388,-2.647511482,-2.016674757
9.501384735,0.926842332,1.325960279,9.023382187,-3.067599535,-2.01924181
9.394006729,1.970604897,1.088534713,8.941681862,-3.141803503,-2.150335073
9.418699265,1.948110461,1.190730214,8.899710655,-3.047700882,-2.246528387
9.919905663,2.899101257,0.881482184,9.136882782,-2.60371089,-2.500882864
9.261161804,0.23578988,2.010775089,9.101130486,-2.736202955,-2.429800034
9.608374596,1.511706471,1.786102772,9.08144474,-2.996876717,-2.573245764
9.751289368,1.890988469,1.790390134,8.972259521,-3.393466234,-2.53730011
9.654279709,1.27123785,1.571761727,9.027673721,-2.608216047,-2.727464676
9.460963249,2.158468723,1.24584651,8.778993607,-3.261346817,-2.586233139
9.555558205,1.595795631,0.504556715,8.989291191,-4.163651943,-2.196508884
9.963751793,2.185827494,-0.063450947,8.498410225,-3.003451586,-2.471913576
9.30540657,-0.19632794,-0.741748154,8.488723755,-4.589719296,-2.259995699
9.472202301,1.073038459,-1.215795159,7.864893913,-6.355752468,-3.064825773
9.33836174,-0.076621808,-1.352914453,8.619376183,-4.559206486,-2.650163412
9.864167213,2.214589834,0.236374691,8.150115013,-5.636381149,-4.237884521
10.15682983,-0.231750607,1.144996643,8.606178284,-4.444074631,-4.571187973
10.49628258,0.636509538,2.084125042,9.158089638,-3.923659325,-2.523646593
9.486388206,2.607152939,2.07343483,8.380929947,-4.735171795,-3.163883924
9.264815331,1.392678738,1.591731787,8.493126869,-5.076776028,-3.144586325
9.20204258,1.485183001,1.238423109,7.703251362,-6.610412598,-3.274729252
9.526303291,0.040055502,0.664656222,7.690915585,-7.31645298,-3.020684242
9.203804016,-0.330868214,0.749410033,7.904979706,-7.488945961,-2.192182064
8.565739632,0.445235372,1.005935311,7.621697903,-7.44987154,-1.815443397
8.518213272,1.826486349,1.141992807,7.964856625,-6.067083359,-1.367520571
8.756038666,4.282492638,1.116596103,8.377999306,-4.190443516,-1.726073027
9.704120636,5.694456577,0.442285836,8.57912159,-4.027618408,-2.036552906
10.21341324,3.975349188,0.327280223,8.453505516,-4.965737343,-1.698147535
10.10295296,1.8069942,0.519576788,7.889405727,-6.710667133,-1.046178937
10.055686,1.456198692,0.87973547,7.78528595,-6.331488132,-1.565119386
10.21611214,1.905132771,0.649455905,7.624960423,-6.408198833,-1.325112343
10.14069176,1.969516635,0.230794191,7.657564163,-6.491334915,-0.996788383
9.518490791,2.762428284,-0.512838781,7.711765289,-6.695992947,-0.710213959
8.776378632,3.688410521,-1.06700325,7.734863281,-6.976705551,-0.573732853
8.308991432,4.319271564,-1.030784726,7.659394741,-7.256084442,-0.62369287
8.517701149,3.578779936,-0.245398328,7.656037331,-7.813497543,-0.792097151
9.428441048,1.602240682,0.351281762,7.582121372,-8.313398361,-1.187698126
10.93643761,-0.441653967,1.16927886,7.670764446,-8.40580368,-1.343529105
11.42399693,-0.641993284,1.481354356,7.796208858,-8.591147423,-1.380841374
11.09202766,0.487950623,1.036303878,7.772380829,-8.44827652,-1.194404483
10.26225853,1.490962625,0.636392891,7.661587238,-8.410407066,-1.108977199
9.717603683,2.24554944,0.625719666,7.635163784,-8.529870987,-1.460904121
9.28390789,2.631073475,0.854086697,7.748729706,-8.511693954,-1.804007769
8.973605156,2.755088568,0.896686912,7.843013287,-8.581825256,-1.993087649
8.78750515,3.201394796,0.877607584,7.67901659,-8.75185585,-2.12908864
8.447099686,3.469827652,0.627416432,7.327627659,-8.617905617,-2.140077829
8.53554821,3.130465031,0.636502266,7.080961704,-8.43074894,-2.110166788
9.438716888,1.786707282,0.737156451,6.924800873,-8.34113121,-2.325476885
10.57878876,0.593412876,1.081644654,6.886968136,-8.237508774,-2.340195417
11.11382008,0.564503789,1.091469646,7.021926403,-8.07916832,-2.268864393
10.61597157,1.514125466,0.643544972,7.077537537,-7.946812153,-2.190189123
9.850237846,2.134796858,0.477327466,7.056378841,-7.93583107,-2.388735533
9.430683136,2.407977104,0.533550978,6.975824356,-7.974355221,-2.443395138
9.387807846,2.517402649,0.714676619,6.94887352,-8.030198097,-2.473086119
9.359477043,2.294691324,0.72433877,7.061798573,-7.970740795,-2.526986837
9.386249542,2.177148581,0.819533885,7.127591133,-7.859848976,-2.647161961
9.304341316,2.395819902,0.892964303,7.105518818,-7.824573994,-2.73157382
9.234269142,2.458918333,0.715373993,7.065108776,-7.715978146,-2.763359308
9.355228424,2.249710798,0.622519672,7.153608322,-7.566956043,-2.827513456
9.552661896,2.175876379,0.337152809,7.284989834,-6.99066782,-2.700889111
9.929451942,2.176528215,0.170786023,7.419997692,-6.871232033,-2.349279642
10.01430321,1.949652791,0.366710365,7.682750225,-7.188077927,-2.299523115
9.843050957,1.702868581,0.510552883,7.852415562,-7.041811943,-2.184792757
9.723134995,1.615247846,0.584325254,7.890895844,-6.704848289,-2.181345224
9.719296455,1.789988279,0.602908432,8.030107498,-6.515271664,-2.261119127
9.760951042,2.085187435,0.730363905,8.169877052,-6.320837021,-2.229839087
9.684145927,2.128320932,0.916542232,8.223383904,-6.156867027,-2.200879335
9.571144104,2.10733819,1.128513336,8.263216972,-5.959158897,-2.02538228
9.375502586,2.159610033,1.137069345,8.381695747,-5.679890633,-1.805799723
9.33907795,2.156621695,0.845001221,8.40699482,-5.470803738,-1.394630909
9.482013702,2.085918188,0.730105221,8.564653397,-5.389460087,-1.512555718
9.733791351,1.986935735,0.296984255,8.623096466,-5.304517746,-1.564964056
10.01747322,1.906452179,-0.068260044,8.920291901,-5.352923393,-2.029229164
10.05953121,1.979674578,-0.109299026,9.165636063,-5.486803532,-2.124354124
10.02414513,1.932709932,0.054239228,9.327120781,-5.735215664,-2.19887495
9.905772209,1.99443686,0.235481724,9.135397911,-5.601377964,-2.607834101
9.682409286,2.188494205,0.587481618,8.770776749,-4.988618374,-2.646836758
9.49461937,2.340801239,0.906676829,8.527213097,-4.381192684,-2.613447905
9.168383598,2.258730173,0.655974686,8.507676125,-3.663205624,-2.095372438
9.449606895,2.606094837,0.856835723,8.565546989,-2.757692575,-1.257151842
9.289579391,2.110588551,1.234318256,8.637453079,-1.852565646,-0.380162418
9.352510452,1.602497339,1.326969266,8.664078712,-1.171528816,-0.063744724
9.517533302,1.463218451,0.953820765,8.586756706,-0.483450323,0.167709872
9.852252007,1.210094452,0.204222262,8.427271843,0.064575031,0.426458359
10.32503319,1.503954411,-0.625900149,8.425840378,0.244339958,0.361736178
10.23574924,1.689339638,-0.934647441,8.606405258,0.622801721,0.207242921
10.08012104,1.891792059,-0.707225084,8.622348785,1.294587493,0.400034368
9.714996338,2.059216499,-0.382146984,8.754453659,1.82139051,0.733753443
9.506475449,1.989728212,-0.006909566,9.204906464,2.38472867,1.506730676
9.358849525,1.906088114,0.638931751,9.207551956,2.602738619,2.321325779
9.41754055,1.731016994,1.255912781,9.215197563,2.275230169,1.936676264
9.638197899,1.322905183,1.993835926,9.092860222,1.496312499,1.009409666
9.797045708,0.719956875,2.344568729,9.124128342,0.720342696,0.269003898
9.818868637,0.346102506,2.347450495,9.158040047,-0.552080095,0.043209501
9.738927841,0.450253874,1.941579342,8.913954735,-0.941361308,-0.37917316
9.730220795,0.961759329,1.300142407,8.565203667,-0.426977277,-0.637096226
9.691905022,1.527695417,0.897384048,7.995585918,0.521651447,-0.674552202
9.655979156,1.568442583,0.431974411,7.454352379,0.786770105,-1.204805493
9.647792816,1.364496827,0.088773921,7.334367275,-0.285895169,-1.20426929
9.657988548,1.309035659,-0.154423624,7.252878189,-1.507630348,-1.441825151
9.668814659,1.31054008,-0.280551076,7.708992958,-3.546406746,-1.65835619
9.570569038,1.052882433,-0.213548824,8.146064758,-6.031757355,-1.689902306
9.616413116,0.64687103,-0.042458296,8.722536087,-7.657859325,-1.784488678
9.706935883,0.237561315,0.255100578,9.309586525,-8.169089317,-1.199396491
9.797440529,-0.244387165,0.807165802,9.543881416,-8.36824894,-0.168562189
9.851982117,-0.560255349,1.324219584,9.711139679,-9.609984398,0.492985874
9.832884789,-0.903481722,1.414648652,9.592725754,-11.07252312,0.820177972
9.915736198,-1.34965837,1.769015431,9.168678284,-10.95232105,0.211482331
9.789978027,-1.516447902,1.949090004,8.834160805,-9.165848732,-0.009480438
9.660935402,-1.605833769,1.972660542,8.652115822,-6.194531441,0.933180511
9.756795883,-1.284708261,1.595624804,8.551194191,-3.925483227,0.473166138
9.664261818,-1.030756474,1.381138563,8.57248497,-3.201507807,0.323672831
9.680086136,-0.585753024,0.934909284,8.56938839,-3.463878632,0.530676544
10.02845955,-0.201310501,0.536214888,8.757263184,-3.454226971,-0.035524927
10.62278652,-0.302828759,0.993611217,9.166356087,-3.139823914,-0.505456805
10.34332561,-0.315780312,2.44576931,9.546709061,-2.339534044,-0.493306816
9.528047562,-0.257536381,2.873067856,9.986750603,-1.788554311,0.227578342
9.248038292,-0.589518785,1.933496833,10.02797222,-1.543883681,1.1227597
9.471161842,-1.323422432,0.397438854,10.04728127,-1.248886228,1.421427488
10.08995819,-1.676828504,-0.725840032,10.17507935,-0.928844273,1.690997958
10.37467289,-1.855149627,-0.720709324,10.10919476,-1.043059468,1.311487079
10.08742237,-1.563153625,-0.527190626,10.02135181,-2.361868143,0.744961262
9.323958397,-2.079274178,-1.162363648,9.816827774,-2.961892843,1.059675455
9.415353775,-2.138878345,-1.664022684,9.896953583,-3.009277582,1.925433159
9.603999138,-2.581009626,-1.218913913,9.969981194,-2.718481064,2.445418358
10.04416275,-2.986680031,-0.952168822,9.717333794,-2.124238014,2.050430775
10.94714546,-4.655303955,-0.01155765,9.518362045,-2.237217426,1.792318225
11.62150478,-5.386352062,-0.658682764,9.393886566,-2.533509254,1.376642227
12.96142483,-0.666935444,-3.72100687,9.035712242,-2.631934881,1.007120848
15.47192001,2.064555407,-2.435016394,8.654540062,-3.34030509,0.173973799
13.93868637,4.169868469,-1.802717566,8.459500313,-3.999297619,-0.669315815
11.36597061,4.246121883,-1.278860092,8.805305481,-4.196896553,-0.978642344
9.256612778,3.282853603,-1.043473005,9.398645401,-4.188676357,-1.13389957
8.050644875,-0.094791085,-1.485942841,9.979106903,-3.538213253,-1.450650573
7.651196003,-2.968882561,-2.121269703,10.25376797,-2.803987265,-1.023283839
9.500174522,2.536550999,-2.142644167,10.56773663,-2.308200121,-0.631146014
10.16586876,5.888115883,-0.801123679,10.70834351,-1.886730075,-0.011166001
10.93880367,4.933507919,-0.128804639,10.54552555,-1.805625439,0.375575513
11.72893047,4.438060284,0.138420478,10.5071497,-1.158608317,0.902557671
12.42278004,5.309336662,0.032402195,10.59847164,-0.125818282,1.966982126
12.88572693,5.519366741,-0.473626256,11.06165791,1.17250967,2.811496019
13.26052856,4.637217999,-1.198243499,10.97912216,0.799190879,2.549452782
13.98627472,4.09366703,-2.009038925,10.84893322,0.194060937,1.883155346
14.62754345,3.287512541,-2.664874554,10.63101387,-0.83611685,0.883148313
14.58489609,1.550620317,-2.794683456,10.17943096,-1.510633588,0.164020941
14.28313065,-0.072486505,-2.673787594,9.703300476,-1.901234269,0.051449526
13.7383604,-0.915795982,-2.692658901,9.948781967,-1.882029653,-0.183834434
13.06152153,-1.141286612,-2.617607355,10.07512093,-1.617987037,-0.013533941
12.48851109,-1.105297565,-2.258651972,9.87514019,-2.067278385,-0.51498872
12.05688381,-0.891122758,-2.203464508,9.767089844,-2.120025158,-0.010847596
11.81559658,-0.518429101,-2.184364796,9.443777084,-1.836102843,0.133962989
11.68702316,-0.266547978,-2.002435207,9.410288811,-1.427077293,0.091435447
11.56531525,-0.063603476,-1.64781642,9.53442955,-2.112186909,0.124311879
11.30243969,0.312476039,-1.075405717,9.817148209,-1.675309181,0.41480571
10.96093082,0.311006516,-0.59097749,10.2779026,-1.443346858,0.56893307
10.09626865,-0.104513161,-0.141594857,10.15404034,-2.564249277,0.325279236
9.094291687,-0.567362189,0.220420599,9.480863571,-3.755311251,-0.400606751
8.049568176,-0.775042295,0.524295211,8.63966465,-4.297792435,-1.350615978
7.212348461,-0.821877837,0.763342798,8.509178162,-4.254239082,-1.099381804
6.724470139,-0.606364906,0.936438143,9.139774323,-3.306027651,-0.475132108
6.427440643,-0.205152914,1.292210817,9.881015778,-2.126983881,-0.017084725
6.187286377,0.131359503,1.42950356,10.06797791,-1.790696263,0.072713502
5.990868568,0.037547603,1.445647955,9.82478714,-1.848005652,0.151362672
5.979471684,-0.354379594,1.705293536,9.532356262,-2.874542236,-0.267172605
6.172170639,-0.273744196,2.00944829,9.277560234,-3.611018658,-0.382399112
6.729908466,0.3865273,2.312922239,8.868185997,-3.622665167,-0.099265903
7.411742687,1.05019486,3.025443077,8.602606773,-3.641803503,0.349219263
7.952160358,1.657864928,3.558122158,8.716809273,-3.47565484,0.371140331
8.232211113,2.150716543,3.851165771,9.064657211,-3.798016787,0.281261176
8.372490883,2.193854094,3.859592199,9.285272598,-3.578793287,0.31464681
8.570410728,1.688055992,3.811346531,9.270690918,-3.044798613,-0.003389595
8.954681396,0.849328697,3.767284632,9.422161102,-2.631580114,0.323905557
9.588856697,0.109935373,3.73696661,9.802871704,-2.39040041,0.395537436
10.3909483,-0.242406398,3.716703653,10.37365818,-2.192361832,0.079949997
11.11524582,-0.283333421,3.738248587,10.38363552,-2.376435518,0.056812592
11.74246311,-0.264045894,3.677464247,10.38774014,-1.927135229,0.037903946
11.73120022,-0.299671739,3.418114901,10.01284885,-2.883821964,-0.635402322
11.43419838,-0.594994366,3.127700567,9.454719543,-3.463547945,-1.113854766
10.90849495,-0.968008757,2.711049318,8.963044167,-3.994063139,-1.275693655
10.34514046,-1.335798383,2.355847359,8.388557434,-4.392922401,-1.627401471
9.84751606,-1.56807375,2.121098995,8.237622261,-4.693275928,-1.794125319
9.728813171,-1.429394364,2.026366234,8.593074799,-4.725440979,-1.563863039
9.848183632,-0.675700903,1.817123175,9.037896156,-4.123731613,-1.113602638
10.23821545,0.506589293,1.731360912,9.562176704,-4.361215591,-0.714821458
10.80166245,1.925080657,1.728254795,9.443961143,-4.355080128,-0.592062175
11.2430172,3.087926865,1.587683201,8.862410545,-4.451356888,-0.818304896
11.49874401,3.372774124,1.81569016,8.154405594,-4.550984859,-0.603583992
11.48690796,2.750884056,2.080104828,7.819909096,-5.171696186,-0.165177047
11.28103065,1.871764064,1.970362544,7.886768341,-5.536282063,0.059686564
11.19352341,0.983680964,1.693362474,8.042917252,-5.309908867,0.110794783
11.04692364,0.149536029,1.374750495,8.042812347,-4.927538395,0.04535576
10.76823235,-0.386617959,1.130386114,8.39367485,-4.434099197,-0.272542238
10.57127571,-0.661732197,1.101816773,8.581607819,-4.234786034,-0.513434708
10.77851677,-0.411084443,1.073906898,8.882214546,-3.992940903,-0.652282238
11.28260803,0.444743484,0.988362908,9.076957703,-3.976089001,-1.052449465
11.75978851,1.49838841,0.905302703,8.819225311,-4.157869339,-0.830919027
11.9194622,2.176165104,0.752736092,8.587956429,-4.249786854,-0.706520438
11.7371645,2.764825821,0.631188989,8.390202522,-3.845321894,-0.403445572
11.75492382,2.699536324,0.222744182,8.622653008,-2.891242743,-0.484795094
11.56685638,1.801273227,0.232904702,9.118260384,-2.453851461,-0.156103522
10.76916027,0.874129832,0.387265235,9.687421799,-2.274640322,0.087791868
10.19134426,0.552973628,0.304966331,10.05255985,-2.399619341,0.085622609
10.0316658,0.677350402,0.2241714,10.20710373,-2.36357522,0.132287323
10.05779934,1.026211977,0.215362892,10.33182526,-2.227865934,-0.077356547
10.18978786,1.323974609,0.076728776,10.18215752,-2.770106316,-0.494992256
10.48126125,1.358333707,-0.200749338,10.00948048,-2.940395117,-1.154980779
10.68912125,1.344979167,-0.488106012,9.847195625,-2.904157877,-1.580063343
10.84613419,1.452033877,-0.7943452,9.594707489,-3.111840487,-1.686297178
10.82525158,1.594339848,-1.028792977,9.442913055,-2.973312616,-1.478782773
10.69573879,1.658396006,-1.124156237,9.26382637,-2.890613794,-0.945793509
10.46418667,1.708313107,-1.097080469,9.060004234,-2.938695669,-0.41114679
10.19032669,1.733932734,-1.019862652,9.145721436,-2.390370846,0.3340922
9.893920898,1.895151258,-0.949197114,9.214158058,-2.07047081,1.042721391
9.581186295,2.256536007,-0.848120332,9.496253014,-1.889210939,1.282961726
9.457817078,2.564962626,-0.679834366,9.747915268,-1.722408175,1.334941387
9.471576691,2.518107653,-0.565377831,9.980595589,-1.558711886,1.105760336
9.449062347,2.223377228,-0.464176923,10.19598484,-1.176597953,1.016322851
9.3179245,1.900288582,-0.49386549,9.968681335,-1.739707708,1.084468126
9.069872856,1.746587753,-0.517340124,9.366153717,-2.505678415,1.110766411
8.950612068,1.752074838,-0.580085695,8.571528435,-3.023074627,1.009168386
9.044756889,1.920648336,-0.737484813,8.045028687,-3.476405382,0.819930613
9.277598381,2.254895449,-0.93310523,7.999030113,-3.769517183,0.510941744
9.446955681,2.519073486,-1.083244324,8.313081741,-3.411733866,0.193282485
9.449926376,2.664418221,-1.045561194,9.015755653,-2.940472841,-0.115749389
9.298833847,2.711978674,-0.939045906,9.837908745,-2.208354712,-0.288022846
9.07006073,2.564557076,-0.828085959,10.69956684,-1.457464457,-0.09654931
8.917599678,2.349868059,-0.82055068,10.86461926,-1.129115462,0.261379063
8.947669983,2.243324757,-0.900641978,10.79619503,-1.074156284,0.153461471
9.317328453,2.291787863,-1.160208344,10.27918911,-1.402183533,0.410058498
9.69713974,2.581715345,-1.143760562,9.623732567,-2.425853014,0.432787538
9.981629372,3.006380796,-1.245560646,9.113100052,-3.012049913,0.183584929
10.24429226,3.026895523,-1.205699563,8.64859581,-3.609539509,-0.13836579
10.17354584,2.337649584,-0.732455254,8.302585602,-3.921515465,-0.717881501
9.726006508,3.184740782,-1.38821876,8.508263588,-3.899686337,-1.174413085
9.587095261,2.66613698,-0.998052776,8.959975243,-3.560024977,-1.51053381
9.345789909,2.517345428,-1.00147438,9.239415169,-2.917420626,-1.356746316
9.458432198,2.616130114,-0.784454525,9.562904358,-2.631290913,-0.532410741
9.599419594,2.686421871,-0.703494608,9.771374702,-2.437834263,-0.136680767
9.783173561,2.547108173,-0.564243615,9.854678154,-2.129672766,0.432893723
9.828108788,2.173793793,-0.347018838,9.682420731,-2.055118084,0.578686595
9.736649513,2.399292231,-0.491599411,9.496707916,-2.401889324,0.524130046
9.747187614,2.443419218,-0.370422065,9.132876396,-2.77442193,0.394355804
9.542121887,2.870742559,-0.442896664,8.826619148,-3.238004208,0.122643702
9.224926949,2.98297286,-0.339191914,8.595964432,-3.441255331,-0.124087967
9.076289177,3.195791006,-0.364330471,8.740413666,-2.990438938,-0.376615077
9.012289047,2.942403078,-0.429716349,9.132873535,-2.578756094,-0.590784788
9.244194031,2.476013184,-0.530429423,9.535399437,-1.842115402,-0.454782695
9.502311707,2.073860645,-0.830758631,10.13768959,-1.065924168,-0.660574555
9.820651054,1.584541321,-1.036778569,10.67854214,-0.540429711,-0.527744651
10.19971943,1.037942648,-1.003341079,10.91665745,-0.347082973,-0.229322135
10.48550987,1.071440935,-0.914313316,10.81470299,-0.832788646,-0.074470446
10.30740452,1.257648587,-0.610699475,10.59391594,-0.884742081,0.077071875
10.2184,1.614264131,-0.470989943,10.33390999,-0.839257061,0.251550078
10.1289711,1.683777928,-0.423618793,9.965538025,-1.100865602,0.605050087
9.758774757,1.717685103,-0.413888007,9.791528702,-1.124521852,0.575103164
9.686702728,1.985126734,-0.486180127,9.189124107,-1.788250446,0.824586391
9.627569199,2.437650442,-0.37004444,9.54137516,-1.841551661,0.775744677
10.24603939,2.117108107,-0.183534488,9.455137253,-2.112921715,0.710988164
9.317941666,3.15762639,-0.943509042,9.400435448,-2.670454264,0.703360915
9.434509277,3.107956409,-0.391110748,9.82149601,-1.92130065,-0.184547246
9.389882088,2.894189119,-0.782615542,9.868174553,-1.23998189,-0.306696057
9.162453651,1.816618323,-0.404974937,9.529040337,-1.720193028,-0.547727883
9.089512825,3.277222157,-1.148186564,9.988016129,-1.170638204,-0.280034572
9.107852936,2.726360321,-0.601777852,10.20049667,-1.165296912,0.008848285
8.844911575,3.22544384,-0.262877852,10.03280258,-1.389182329,0.241694123
9.186935425,3.434946537,-0.033801578,9.817005157,-1.466852427,0.434104085
9.142439842,3.472293139,-0.01850334,9.440538406,-1.543285847,0.382349044
9.451179504,2.753083706,0.02931086,9.709619522,-0.944278419,0.409913272
10.11878204,3.197720289,-0.716716349,9.870828629,-0.947657645,0.740382016
9.832640648,2.644425392,-0.584999323,9.733745575,-0.957072675,0.78260684
9.610267639,2.601814985,-0.717716277,10.17176533,-0.467682332,0.35195002
9.039323807,3.334014654,-0.779764533,9.839666367,-0.634256423,0.315470517
8.896787643,3.59654355,-0.74188298,9.764774323,-1.023086905,0.30642432
8.567008972,3.91620183,-0.557147622,9.50121212,-1.356960058,0.493128628
8.798998833,3.746877909,-0.591425776,9.448620796,-1.363195896,0.503056467
9.065054893,3.102334023,-0.418524384,10.47616959,0.040000282,0.749138713
8.997879028,4.5585742,-0.266288787,9.564888954,-0.990031838,1.356853008
9.302945137,4.084882736,-0.586165488,9.281758308,-1.971463919,1.214856625
9.855470657,2.187897682,-0.795670509,9.673542976,-1.044124126,1.25784874
9.568243027,2.200321913,-0.83975327,9.400723457,-1.334141254,1.110070705
9.400334358,2.933905602,-0.954437196,9.135259628,-2.277986288,0.783145905
9.162419319,3.57479763,-0.786312044,9.130781174,-2.007771969,0.298582852
8.88257122,3.636368752,-0.968962371,10.03978062,-1.899065614,0.001695829
8.34811306,4.405937672,-0.772489071,8.888590813,-2.054431915,0.772494018
9.20113945,3.618449211,-1.639414072,9.946978569,-1.24109602,0.691010475
8.858108521,4.378554344,-1.394750595,9.236070633,-1.60136044,1.425344706
9.932208061,2.817791224,-1.530969262,9.674462318,-1.43280673,1.509050965
9.674407005,2.347987175,-1.65145731,9.576779366,-1.163374782,1.665230989
9.515730858,2.419216156,-1.424431324,9.432052612,-1.540175438,1.173406363
9.1736269,3.147312641,-1.428625226,9.576443672,-2.32387352,0.905647933
8.838248253,3.649002075,-1.662480354,9.611461639,-1.464909196,1.080833673
9.021134377,3.930753231,-2.010416746,9.668821335,-0.870896161,1.256588459
9.323804855,3.905889034,-1.807087421,9.697286606,-0.87595582,1.336298704
9.205239296,4.042539597,-1.733104467,9.54497242,-1.219802499,1.392565131
9.205767632,4.319627285,-1.756530166,9.352910042,-1.815300941,1.068977475
9.276005745,4.583322525,-1.694963098,9.355840683,-2.243244886,0.829204679
9.262973785,4.84070158,-1.603739023,9.561964035,-2.11088419,0.883227706
9.165699959,4.690445423,-1.528832555,9.907624245,-1.421914101,1.065609455
9.000882149,4.35337925,-1.676555276,10.10292625,-0.81330198,1.371738315
8.999728203,4.042984486,-1.903446794,10.07429314,-0.591862559,1.684662342
9.222764969,4.007435799,-1.853057146,9.948058128,-0.663470864,1.87869513
9.422260284,4.198336601,-1.754721284,9.73627758,-0.850439787,2.058398008
9.486818314,4.48805666,-1.598328114,9.410786629,-1.397887349,1.656488538
9.348546982,4.668883801,-1.541064024,9.150996208,-2.418556452,0.594916582
9.100666046,4.653855324,-1.566341758,9.230698586,-2.980308533,-0.232815474
8.855071068,4.528851032,-1.578180909,9.24949646,-3.006584644,-0.668712735
8.691617966,4.44232893,-1.613235831,9.348842621,-3.295076847,-0.665111899
8.70383358,4.498728275,-1.685585856,9.418159485,-2.738420248,0.091912583
8.768075943,4.582295418,-1.750735402,9.414341927,-2.254260063,0.998803794
8.778235435,4.792166233,-1.890970111,9.306001663,-2.05559063,1.553750277
8.732199669,4.958705902,-1.975312471,9.060600281,-2.055262804,1.863924026
8.696845055,5.066016197,-1.959500551,8.912981033,-1.926957607,2.072521448
8.637731552,5.062039852,-1.930031896,9.041882515,-2.414829254,1.65228796
8.475616455,4.940440655,-1.888648033,9.13384819,-2.184871674,1.338801265
8.327137947,4.710299492,-1.852333903,9.114814758,-2.016053438,0.642652869
8.15900135,4.409038544,-1.798893213,9.057152748,-2.828085661,-0.453890353
8.05487442,4.22102499,-1.794523954,9.396019936,-3.200489521,-1.054148912
8.037910461,4.175703526,-1.789852381,9.623848915,-2.93125248,-0.847097516
8.098964691,4.273743153,-1.851951361,10.01104641,-1.933553696,-0.241922036
8.225651741,4.493769169,-1.927229404,10.09244347,-1.343540549,0.577599883
8.354605675,4.632087708,-2.005436659,10.05727005,-0.969992697,1.197456002
8.38365078,4.619194031,-1.862579226,9.910380363,-1.033048987,1.251293421
8.214806557,4.964290619,-2.278170109,9.596989632,-1.354854226,1.025714159
8.631528854,5.298957348,-2.207755089,9.255125046,-2.215205431,0.269783258
8.505646706,5.410738468,-2.073018789,9.03012085,-3.117813349,-0.345133841
8.27097702,5.498992443,-2.129824638,9.114407539,-3.396275759,-0.751793265
7.863744259,5.424065113,-2.046699286,9.43066597,-2.323744297,-0.932193875
7.5941329,5.285056114,-2.06911087,10.07909298,-2.117125034,-0.800746739
7.489153385,5.105725765,-1.950930834,10.37602329,-1.288139701,0.37774843
7.394153118,5.10982275,-1.836493731,10.52100945,-0.555957019,0.592637122
7.315276146,5.208380222,-1.768157482,10.46695137,-0.574862659,0.676603436
7.378905773,5.430721283,-1.759311795,10.32368851,-0.778870046,0.149512008
7.475659847,5.735209942,-1.747367024,9.736489296,-2.197578907,-0.720639586
7.569839478,5.920750618,-1.69454515,9.082671165,-3.857917786,-1.348804355
7.636770248,5.956687927,-1.683326364,8.696541786,-4.048355103,-0.896847904
7.798971653,5.913440228,-1.707150102,8.534217834,-3.714211941,0.137021765
7.920228481,5.760844231,-1.628773332,8.61598587,-3.061063051,1.050184608
7.994400501,5.573174477,-1.444045663,8.878015518,-2.292244434,1.315914392
7.882670403,5.439579487,-1.476960421,9.523980141,-1.86753881,1.48735857
7.696327209,5.422198296,-1.634263277,9.989817619,-1.503631949,2.148697853
7.768791676,5.486437798,-1.846327662,10.02876186,-1.060238004,2.073453903
7.910935879,5.563377857,-1.761873484,9.937693596,-1.391059637,1.637479186
8.035142899,5.855196476,-1.760031343,9.641033173,-1.782530427,0.85966754
8.209771156,6.216675282,-1.691783905,9.396636963,-2.631400585,-0.054707371
8.361263275,6.444972515,-1.616570473,9.2342453,-3.240683079,-0.368585497
8.204831123,6.775327682,-1.776266694,9.10560894,-3.228278399,0.010950966
8.499258995,6.739786148,-1.909424186,8.950163841,-2.985203028,0.302850097
8.168649673,6.475995541,-1.875022411,8.985266685,-2.828447819,0.332329541
8.162486076,6.165660858,-2.228770494,9.242853165,-2.424020052,0.09026695
8.183923721,5.853210449,-2.173872948,9.725552559,-1.971094251,0.404592931
8.558067322,5.743087769,-1.619030476,10.14658642,-1.278794885,0.869075537
8.949896812,5.840051174,-1.163273931,10.17319965,-0.960407257,1.262253523
9.135822296,5.830775261,-0.741999388,9.901967049,-1.533186316,1.140111923
9.244764328,5.72121048,-0.780440629,9.480970383,-2.183942556,0.501851916
9.196944237,5.473680496,-1.125320435,9.181025505,-2.792382479,-0.195634365
9.095440865,5.109295368,-1.547798753,9.117581367,-3.023642302,-0.532347322
9.112826347,4.693170547,-2.037559509,9.180060387,-2.609870672,-0.160362735
9.118730545,4.329288006,-2.295147896,9.370368004,-2.135212421,-0.028022341
8.921938896,4.20686388,-2.223118782,9.590204239,-2.085705757,-0.040587153
8.790762901,4.441733837,-2.136263609,9.602697372,-2.426505804,-0.154327899
8.829052925,4.938971996,-1.758674383,9.558152199,-2.494534731,0.205250308
8.96920681,5.645740509,-1.353907228,9.599043846,-2.314076424,0.403265834
9.344913483,6.148727894,-0.996885478,9.655344009,-2.026531935,0.992767274
9.265507698,6.348991871,-0.653697431,9.641367912,-1.724883676,1.115006566
9.432527542,6.362539768,-0.968631983,9.660601616,-1.573222876,1.339632988
9.273915291,5.583178043,-1.27627492,9.512570381,-1.643579245,1.266784191
8.996419907,4.025673866,-1.510178447,9.319375992,-1.908861756,0.854139209
8.485793114,2.402582407,-1.215239882,9.205975533,-2.346005917,0.267548114
7.959372997,1.848428845,-1.022572875,9.152445793,-2.62421751,-0.18720527
7.824653625,2.566230536,-1.68704772,9.141195297,-2.742287159,-0.425630927
8.236380577,3.003428221,-1.397985935,9.276705742,-2.642472982,-0.397100419
8.473561287,2.9988482,-1.185729027,9.499860764,-2.371195793,-0.305315137
8.490192413,2.419728279,-0.527114391,9.712810516,-1.838803291,-0.338776052
8.538578033,2.165998697,0.305386961,10.03543186,-1.553219438,-0.347244263
8.558932304,2.488164663,0.548761129,10.16166401,-1.601113677,0.26859659
8.799880981,3.599449396,0.389636248,9.94299984,-1.470495224,0.985022366
8.818589211,4.750257492,-0.107521974,9.593450546,-1.678314209,1.416355014
9.323929787,5.210422039,-0.614207745,9.268575668,-1.957223535,1.797345996
9.347351074,4.624355793,-0.353038788,9.048294067,-1.81419301,2.107313156
9.217889786,3.921091795,-0.491068423,8.928893089,-1.7235533,1.588958859
8.865401268,3.330868721,0.039612785,8.995472908,-1.866344094,0.869745016
8.459480286,2.551295757,0.407022089,9.07348156,-2.323897362,0.303270489
8.012124062,1.91551578,0.630241394,9.174860954,-2.620905161,-0.105347753
7.477586269,2.005680561,0.515283585,9.515964508,-2.75496459,-0.44326809
7.490626812,2.786689997,0.202571616,9.821072578,-2.252999544,-0.035128776
7.911350727,3.992680073,0.061384998,10.05693722,-1.266571879,0.543110847
8.300506592,4.327764988,-0.099351138,10.05597878,-0.836109698,0.975421548
8.746671677,3.760653257,0.240949675,9.880482674,-0.850308359,1.203877449
8.839194298,3.144363642,0.932145834,9.710439682,-0.848333061,1.079334617
8.637981415,2.962900162,1.236217022,9.685049057,-1.094257832,1.251027107
8.449264526,2.885139942,1.09882772,9.476963043,-1.324622631,1.492572904
8.380928993,2.604113102,1.123634815,9.171243668,-1.574774742,0.670954585
8.193907738,2.662273169,1.029734612,9.260253906,-2.192997456,-0.017919162
7.996191978,2.881241322,0.918450713,9.400975227,-2.140190363,-0.12887831
8.27733326,3.54155302,0.79200238,9.610237122,-1.932779551,-0.10139069
8.276830673,3.510151863,1.406232238,9.648957253,-1.550813556,0.310354561
7.567079544,3.019098997,1.049898028,9.620740891,-1.272641659,0.381746054
7.353383541,3.348941088,0.19671531,9.757740021,-1.219691753,1.060723066
7.604441643,4.115655899,-0.554739296,9.850177765,-0.622138321,1.843158126
7.920985699,4.397438049,-0.78814292,9.763087273,-0.071517222,2.261413574
8.068575859,4.162146568,-0.708768129,9.576272964,-0.084822759,1.628038287
8.05320549,4.278482914,-0.619017124,9.672739029,-0.590014279,0.387513101
8.27212429,5.284302711,-0.434513479,9.83605957,-0.842472672,-0.273051947
8.516641617,6.318907738,-0.303413272,9.911333084,-0.898715913,-0.562788546
8.532244682,6.542621613,-0.25733605,9.906208992,-0.897934973,-0.400505781
8.454816818,6.118053913,-0.30573687,9.814553261,-0.734491646,0.033039961
8.306438446,5.355802059,-0.361066043,9.664607048,-0.923373163,0.3072384
8.385303497,4.388580799,-0.083181351,9.603796005,-0.854603171,0.16264604
8.437724113,3.889715672,0.163232431,9.755009651,-0.582514048,-0.075508252
8.243803024,3.691978216,0.3179425,9.993591309,-0.505414367,-0.002012212
7.74998188,3.329080343,0.017738402,9.974176407,-0.368267089,0.881605148
7.36486578,2.462957144,-0.426683545,9.747219086,-0.221970603,1.488884687
7.189707756,1.780405402,-0.705393374,9.518830299,-0.211222604,1.175060034
7.777698994,2.266873598,-1.283798337,9.466737747,-0.853782475,0.564720035
8.364905357,3.154826641,-0.978544235,9.470988274,-0.896017671,0.382132888
8.961209297,4.217778206,-0.377490699,9.565740585,-0.655605257,0.803495884
9.373419762,5.488753796,0.162608922,9.655637741,-0.264446616,1.093018889
9.256398201,6.867739677,-0.581262648,9.673950195,0.218007818,1.19022274
10.513978,7.191828728,-1.155408978,9.633940697,0.1324763,1.041745067
10.67953873,5.817389011,-0.046051722,9.547840118,-0.122659408,0.395153344
10.08280659,4.323605061,-0.323547781,9.662366867,-0.305434167,-0.373428643
10.24521828,2.93047452,-0.307023734,9.633885384,-0.621420681,-0.086983174
10.49514103,2.468142748,0.157204598,9.488990784,-0.446395993,-0.189238086
10.37428951,1.989426851,-0.096446328,9.613208771,-0.102195561,0.132904053
9.952163696,0.397830397,-1.258885384,9.53758049,-0.498164982,0.216108292
10.48868847,-0.830872834,-1.836263895,9.629652023,-0.777357757,-0.084053516
10.9733057,-0.626481235,-1.307635784,9.605352402,-0.913068712,-0.533282518
11.63388157,-0.045162372,-0.27922821,9.754160881,-0.815813184,-0.437926084
11.85114002,0.67158848,0.351979852,9.902082443,-0.479203463,-0.108583003
12.08298016,2.50203228,0.202575326,9.652659416,-0.236272588,0.124053463
11.53450775,3.717048645,-0.552626371,9.531453133,0.216850564,-0.11498335
10.83662415,3.638642073,-1.230082393,9.235739708,0.433120877,-0.202185273
10.23226452,3.156670332,-1.767207146,9.233127594,0.119543351,-1.067574739
9.966688156,2.418448687,-1.394425154,9.333726883,-0.489166349,-2.012044668
10.12827969,1.430933237,-0.027560586,9.452475548,-1.095667243,-2.116980076
10.2752037,1.322347522,1.02053237,9.814232826,-0.941423595,-2.98059392
10.21579266,1.607333302,1.236892343,10.32811832,0.321994126,-2.589545012
10.09416676,2.588907957,1.257410407,10.9834547,-1.042206526,-1.14296639
10.05743885,3.401676416,1.564310551,11.77499485,-2.484554768,0.144130632
9.632879257,3.640196323,1.764580488,12.61014557,-4.005487919,0.944933534
8.883140564,3.759440899,1.899571896,14.31038284,-3.598482132,1.611991525
8.080752373,3.607680082,1.784458399,14.50826168,-0.444698632,1.792295933
7.726031303,3.26398778,1.318161011,14.22603607,3.519708872,2.265261412
8.40291214,3.128872871,0.821241617,14.76207542,7.134786129,1.920951724
9.268452644,3.509147882,0.664481819,16.11549759,1.80977881,2.467810392
9.612330437,3.76884532,0.655701399,13.49172974,-6.700126171,2.94854331
9.986906052,3.537007332,0.418349832,11.47146511,-6.863166332,0.51696986
10.31801414,3.004523754,0.272702992,10.60598755,-6.683507442,-0.624984264
10.34309101,2.624544621,0.178634465,9.307217598,-6.445812702,-1.698343158
10.46141148,2.171274662,-0.11434406,9.601182938,-4.816581726,-3.44078207
10.54988098,1.466906905,-0.299795389,10.28497219,-4.056719303,-3.373096228
10.48738289,0.952058315,-0.705218256,10.26015282,-2.903275967,-2.282387257
10.37931442,0.862632096,-0.675915837,10.55849743,-2.223458052,-1.746892929
10.46373081,0.990049124,-0.180378035,10.9969368,-2.592561007,-1.96062696
10.62871265,0.708067596,0.296605647,11.2333498,-2.279057741,-2.080477476
10.70967388,0.48398295,0.469202727,11.14470863,-1.919274926,-2.586248159
10.59562778,0.622108877,0.571184695,10.85638618,-1.921849728,-3.219920397
10.30797386,1.245544672,0.351389706,10.79402542,-2.056832552,-3.284501553
10.12524319,1.141936779,0.587710857,10.66253853,-2.107400179,-2.866197824
10.01033401,0.935616791,0.683772504,10.05015659,-1.817503095,-2.713320732
10.12548828,0.953065693,0.425137013,9.543795586,-1.446737766,-2.560493231
9.903966904,1.363132358,0.214193508,9.331703186,-1.201329112,-2.18249774
9.498299599,1.855132818,0.039389987,9.37007618,-0.92056036,-1.803330183
9.269639015,2.529884338,-0.165394053,9.654485703,-0.823768318,-1.477190971
9.017145157,2.62606144,-0.285960972,9.36762619,-0.201306552,-0.927910328
8.983858109,2.630905867,-0.044844054,8.919112206,0.620438039,-1.297162294
8.925790787,2.829749346,0.239093125,8.918172836,0.842292905,-1.392494321
8.740934372,3.057435036,0.2397338,8.966341972,0.519272566,-0.66795063
8.637051582,3.39300108,0.064861163,8.871098518,0.373559892,0.030828629
8.778617859,3.499784231,-0.83406353,9.050563812,0.243378758,0.877491891
9.415496826,2.256591082,0.068815492,9.244924545,-0.476927012,1.865905046
9.311260223,1.634323955,0.450615734,9.315515518,-1.037869811,2.388031483
9.285557747,1.495906472,0.489369988,9.530949593,-0.495645911,2.125436068
9.441195488,1.984807372,0.68335253,10.1584301,0.869346321,1.681507587
9.253362656,2.391134977,0.638855517,10.79133606,1.952671885,1.882110596
9.250823975,2.275930882,0.29676953,10.70996952,2.599616289,2.208889961
9.346094131,1.945333123,0.004397153,10.32804298,2.677284241,2.005313396
9.49239254,1.674996734,-0.19095929,9.865329742,2.383486032,1.915214658
9.693671227,1.259894967,-0.5379076,9.368843079,1.991863966,2.031179667
9.997136116,0.863637447,-0.004123695,9.034264565,1.521738291,2.310397387
10.07363415,0.746023595,0.452581316,9.025925636,0.816566467,2.413154602
9.984705925,0.951972246,0.542044163,9.433607101,0.21395646,2.316235542
9.903047562,1.192200303,0.435985059,9.986312866,0.135528475,2.14210701
9.868115425,0.942525566,0.545843542,10.32679844,0.387280762,1.740900517
10.15295601,0.222137019,0.608606458,10.33861828,0.623462379,1.350666404
10.39604187,-0.126554132,0.491486788,10.12679386,0.639470041,1.441800117
10.20652485,0.747389138,0.285883665,10.09102821,0.604559481,1.923242569
9.609622955,1.902324557,-0.363628417,10.48766136,0.322063625,2.475647211
9.324897766,2.460779428,-1.143644333,10.66103363,0.179733232,2.818710804
9.638173103,2.171587467,-1.639334679,10.31222343,0.595919669,2.728559017
9.832765579,1.682820201,-1.347705841,9.789550781,1.100996375,2.508430004
9.919502258,1.750378489,-1.140629888,9.49101162,1.594566226,2.362210035
9.958028793,2.207540035,-0.984470427,9.816361427,1.701855302,2.00834918
9.718664169,2.503595114,-0.952145875,10.55214596,1.429928184,1.753121138
9.474993706,2.682878256,-0.87485683,11.05930328,1.076638341,1.84070158
9.487504959,2.600932121,-0.617497981,11.03323936,0.736903012,1.751177192
9.558734894,2.160258532,-0.48611626,10.85370731,0.60979259,1.25877738
9.724536896,1.4539814,-0.529048681,10.77972317,0.776577115,0.865166247
9.648445129,1.65804565,-0.836994171,11.23641396,0.926068008,0.917440534
9.286558151,2.499142647,-1.293496132,11.98277569,0.631450951,1.209756494
9.262350082,2.456234932,-1.540629625,12.16854191,0.281703234,1.344367623
9.675375938,2.245103121,-1.357980251,11.65834618,0.155829117,1.152885199
10.00850582,1.94553709,-1.106511235,11.02410984,-0.180637479,0.85756582
10.17259121,1.42724669,-1.091946959,10.47301579,-0.758496463,0.54783529
10.31197929,0.861906767,-0.817414463,10.10559368,-1.250406861,0.361407638
10.25606632,0.8262797,-0.706385255,9.971068382,-1.405239105,0.199595526
10.15720367,1.074155211,-0.955223322,9.978034019,-1.230880499,0.094668567
10.00854111,1.212623239,-0.744739711,10.44063759,-0.957463801,0.157950342
9.379192352,1.774635077,-0.64460659,11.34028625,-1.064820766,0.48965019
9.197955132,2.140842676,-0.346413314,11.7579565,-1.25093627,0.680565357
9.238951683,2.053034306,-0.376844466,11.78746605,-1.375213861,0.624181449
9.419813156,1.894882441,-0.591387749,11.42987823,-1.270995378,0.666076601
9.760663033,1.585094571,-0.805067956,10.94854355,-1.10137856,0.722868979
10.01344681,0.94846338,-0.702874303,10.48038292,-0.933921516,0.612474799
10.25113106,0.58166796,-0.255529583,9.996011734,-0.844897747,0.46717447
10.50227165,0.295704544,0.277568817,9.611340523,-0.945499837,0.404979497
10.46223927,0.56562984,0.556681991,9.417336464,-1.209239244,0.339275897
10.11657143,1.520666003,0.475418836,9.470274925,-1.55729115,0.142289385
9.43737793,2.334374666,0.48375392,9.657577515,-1.681780934,-0.244936138
8.898172379,2.737018824,0.435017407,10.01522636,-1.4372437,-0.539717495
8.810100555,2.990272522,0.10484077,10.48751354,-1.190657496,-0.703475833
8.84131813,2.475315571,-0.307924032,10.99989223,-1.357603073,-0.65660733
9.343728065,1.875163555,-0.377223641,11.11461735,-1.62954402,-0.784060955
9.91897583,1.424256444,-0.29487747,10.90005112,-1.890763998,-1.174426317
10.14713383,0.921073556,-0.198503181,10.61480522,-2.057138681,-1.452904701
10.49981403,0.378438234,0.040025517,10.46102428,-2.132889986,-1.943007112
10.51715946,0.017384227,-0.018728673,10.37597942,-3.029189348,-3.65681982
10.6144228,-1.169846654,-0.244853005,10.54323196,-3.632790565,-4.164547443
10.73631763,0.211759135,-0.163769245,10.51762009,-2.44702816,-4.003477097
11.04175472,1.111245632,-0.089204818,10.09069824,-0.595469952,-2.705817938
10.41080952,0.549592614,0.196216881,9.556178093,-0.905064166,-2.310896397
9.769564629,0.161504745,0.248766124,9.376060486,-1.754916191,-2.361881971
9.6242733,0.764509439,0.123023331,9.413993835,-1.864524961,-1.93847084
9.619867325,0.716928422,-0.106394432,9.175022125,-1.663177133,-1.659520388
9.33513546,0.499998868,-0.096652016,8.996702194,-1.759732485,-1.657304645
9.212993622,0.499786496,0.215939283,9.009167671,-1.543403268,-1.93296802
9.338460922,0.372030407,0.54683435,9.190753937,-1.276533604,-2.060596704
9.625692368,0.275841177,0.816058993,9.365133286,-1.19088614,-2.20281601
9.853310585,0.349165022,1.205034971,9.405644417,-1.122063994,-2.197098255
9.899413109,0.372519195,1.316706061,9.497130394,-1.063687921,-1.978907704
9.940723419,0.418706477,1.42102468,9.447173119,-1.090946555,-1.841545224
9.894875526,0.65914166,1.502739191,9.523730278,-1.407475829,-1.607603312
9.77982235,0.94535166,1.281511903,9.579693794,-1.852985501,-1.51478827
9.689584732,1.01219511,1.056957483,9.473073006,-2.075832129,-1.557276845
9.68237114,1.121947289,0.883591831,9.448602676,-2.215288162,-1.626305938
9.662753105,1.138702631,0.800767899,9.410327911,-2.317721128,-1.586855412
9.746825218,1.278759837,0.639375269,9.283320427,-2.489156961,-1.555330515
9.700325012,1.368009686,0.451837599,9.128444672,-2.402188778,-1.510504007
9.591760635,1.625499725,0.387631238,9.11762619,-2.251642704,-1.563948035
9.558220863,1.557247639,0.480141163,9.238949776,-1.850786805,-1.650454879
9.590968132,1.352962375,0.608647704,9.288111687,-2.003030062,-1.681936979
9.695913315,1.591515303,0.60150522,9.241256714,-1.002034545,-1.247054458
9.871279716,2.245823622,0.417435288,9.404488564,-1.037547231,-1.343004227
10.22779846,2.248475313,0.456664354,9.716915131,1.030779958,-0.940738618
10.10730553,2.719755888,0.290064991,9.785788536,-3.745665073,-2.108440876
9.217357635,-1.291121364,0.190049827,9.455319405,-3.790680408,-2.21632123
10.00037098,1.91622138,0.519477069,9.696587563,-2.862111092,-1.7886765
9.808376312,1.129599929,0.626008511,9.63161087,-4.610342503,-2.291525126
9.619260788,-0.605160594,0.396961451,9.613708496,-3.499409437,-1.929197073
9.923931122,1.535366297,0.768069983,9.728938103,-1.950681567,-1.402252436
10.2948122,2.399383307,0.82110554,9.550409317,-3.263608456,-1.922456861
9.617975235,0.927269876,0.666832805,9.280869484,-3.658243895,-2.083566427
9.529519081,1.83221817,0.516726494,9.206595421,-3.37425971,-1.791250706
9.550915718,2.360061646,0.303108513,9.157880783,-3.184856653,-1.65415287
9.450052261,1.903902531,0.030406639,9.107233047,-3.085642338,-1.456873894
9.407018661,1.807270408,-0.085686103,9.231851578,-2.963772058,-1.386573315
9.606005669,1.603357553,0.026639016,9.253967285,-2.934547663,-1.292024493
9.617964745,1.573805809,-0.079167739,9.217589378,-3.054111481,-1.104705095
9.586712837,1.618894458,-0.313416958,9.237878799,-2.981652975,-0.899616718
9.608673096,1.584939599,-0.435764611,9.349991798,-2.675818205,-0.88245362
9.711863518,1.421622515,-0.290866584,9.3160429,-2.418745279,-0.866621673
9.733644485,0.959555268,-0.102714926,9.28129673,-2.258521318,-0.893815458
9.776884079,1.093790293,0.1214559,9.316839218,-2.315420866,-0.948117256
9.842218399,1.097595215,0.36434111,9.294597626,-2.503310204,-1.026261568
9.740337372,1.202467918,0.5097633,9.343342781,-2.639767885,-1.035092235
9.716814041,1.638804317,0.442735881,9.214570045,-2.945918083,-1.044697881
9.650836945,1.998010993,0.28190726,9.126947403,-3.21950531,-0.90871346
9.546857834,2.016736507,-0.046241581,9.145978928,-3.176703453,-0.796080232
9.591751099,1.790609837,-0.322369307,9.302726746,-2.997028112,-0.704711437
9.720939636,1.331909895,-0.510290861,9.458381653,-2.878036499,-0.82407099
